Unnamed: 0,codeJS_started,codeJS_stopped,participant,session,date,expName,psychopyVersion,OS,frameRate,welcome_started,welcome_stopped,key_resp_keys,key_resp_rt,key_resp_duration,practice_trials,Conditions_lst,instructions_started,instructions_stopped,key_resp_2_keys,key_resp_2_rt,key_resp_2_duration,instructions1_started,instructions1_stopped,key_resp_6_keys,key_resp_6_rt,key_resp_6_duration,square_demo_started,square_demo_stopped,key_resp_13_keys,key_resp_13_rt,key_resp_13_duration,square_demo2_started,square_demo2_stopped,key_resp_14_keys,key_resp_14_rt,key_resp_14_duration,instructions2_started,instructions2_stopped,key_resp_3_keys,key_resp_3_rt,key_resp_3_duration,line_demo_started,line_demo_stopped,slider_4_response,slider_4_rt,judgement_demo_started,judgement_demo_stopped,slider_2_response,slider_2_rt,instructions2line_started,instructions2line_stopped,key_resp_7_keys,key_resp_7_rt,key_resp_7_duration,instructions3_started,instructions3_stopped,key_resp_4_keys,key_resp_4_rt,key_resp_4_duration,instructions4_started,instructions4_stopped,key_resp_9_keys,key_resp_9_rt,key_resp_9_duration,instructions5_started,instructions5_stopped,key_resp_10_keys,key_resp_10_rt,key_resp_10_duration,ready_prac_started,ready_prac_stopped,fix_started,fix_stopped,prac_trials_started,prac_trials_stopped,color,dur,dur1,dur2,condition,cond_pair,catch_trial,key_resp_8_keys,prac_judgement_started,prac_judgement_stopped,slider_3_response,slider_3_rt,trials_2_thisRepN,trials_2_thisTrialN,trials_2_thisN,trials_2_thisIndex,trials_2_ran,key_resp_8_rt,key_resp_8_duration,instructions6_started,instructions6_stopped,key_resp_12_keys,key_resp_12_rt,key_resp_12_duration,ready_started,ready_stopped,trial_started,trial_stopped,key_resp_5_keys,judgement_started,judgement_stopped,slider_response,slider_rt,trials_thisRepN,trials_thisTrialN,trials_thisN,trials_thisIndex,trials_ran,key_resp_5_rt,key_resp_5_duration,post_task_started,post_task_stopped,key_resp_11_keys,key_resp_11_rt,key_resp_11_duration,the_end_started,the_end_stopped,key_resp_16_keys,key_resp_16_rt,key_resp_16_duration,rho,p_value,zscr,resp_diff
24,,,A1153ZIEQX0ZJ8,1,2023-11-28_15h38.48.975,color_task,2023.2.2,Win32,60.00600060000001,,,,,,,,,,,,,,,,,,,,,,,,,,,,,,,,,,,,,,,,,,,,,,,,,,,,,,,,,,,,,,,177.2957,177.7878,,,y,2.0,2.0,0.0,continious,"[""y"",2]",No,,,,,,,,,,,,,,,,,,,,177.7887,179.7781,,179.7783,182.2875,1.99537037,2.2661,0.0,0.0,0.0,0.0,1.0,,,,,,,,,,,,,0.4657404230128503,8.122590767582912e-05,0.5046169909481237,0.7528759820151515
25,,,A1153ZIEQX0ZJ8,1,2023-11-28_15h38.48.975,color_task,2023.2.2,Win32,60.00600060000001,,,,,,,,,,,,,,,,,,,,,,,,,,,,,,,,,,,,,,,,,,,,,,,,,,,,,,,,,,,,,,,182.2878,182.7954,,,g,1.5,1.5,0.0,continious,"[""g"",1.5]",No,,,,,,,,,,,,,,,,,,,,182.7954,184.2945,,184.2946,186.6111,1.00462963,2.0646,1.0,0.0,1.0,0.0,1.0,,,,,,,,,,,,,0.4657404230128503,8.122590767582912e-05,0.5046169909481237,0.7528759820151515
26,,,A1153ZIEQX0ZJ8,1,2023-11-28_15h38.48.975,color_task,2023.2.2,Win32,60.00600060000001,,,,,,,,,,,,,,,,,,,,,,,,,,,,,,,,,,,,,,,,,,,,,,,,,,,,,,,,,,,,,,,186.6115,187.1112,,,y-g,1.0,0.5,0.5,boundary,"[""y-g"",1]",No,,,,,,,,,,,,,,,,,,,,187.1112,188.1109,,188.111,190.1538,0.981481481,1.7995,2.0,0.0,2.0,0.0,1.0,,,,,,,,,,,,,0.4657404230128503,8.122590767582912e-05,0.5046169909481237,0.7528759820151515
27,,,A1153ZIEQX0ZJ8,1,2023-11-28_15h38.48.975,color_task,2023.2.2,Win32,60.00600060000001,,,,,,,,,,,,,,,,,,,,,,,,,,,,,,,,,,,,,,,,,,,,,,,,,,,,,,,,,,,,,,,190.1543,190.6441,,,b,4.5,4.5,0.0,continious,"[""b"",4.5]",No,,,,,,,,,,,,,,,,,,,,190.6442,195.1438,,195.144,197.3042,4.00462963,1.9102,3.0,0.0,3.0,0.0,1.0,,,,,,,,,,,,,0.4657404230128503,8.122590767582912e-05,0.5046169909481237,0.7528759820151515
28,,,A1153ZIEQX0ZJ8,1,2023-11-28_15h38.48.975,color_task,2023.2.2,Win32,60.00600060000001,,,,,,,,,,,,,,,,,,,,,,,,,,,,,,,,,,,,,,,,,,,,,,,,,,,,,,,,,,,,,,,197.3047,197.8031,,,b,1.0,1.0,0.0,continious,"[""b"",1]",No,,,,,,,,,,,,,,,,,,,,197.8031,198.7938,,198.794,202.0696,1.490740741,3.0333,4.0,0.0,4.0,0.0,1.0,,,,,,,,,,,,,0.4657404230128503,8.122590767582912e-05,0.5046169909481237,0.7528759820151515
29,,,A1153ZIEQX0ZJ8,1,2023-11-28_15h38.48.975,color_task,2023.2.2,Win32,60.00600060000001,,,,,,,,,,,,,,,,,,,,,,,,,,,,,,,,,,,,,,,,,,,,,,,,,,,,,,,,,,,,,,,202.0699,202.5697,,,y-g,4.5,2.25,2.25,boundary,"[""y-g"",4.5]",No,,,,,,,,,,,,,,,,,,,,202.5697,207.0599,,207.0601,208.51,2.0,1.1987,5.0,0.0,5.0,0.0,1.0,,,,,,,,,,,,,0.4657404230128503,8.122590767582912e-05,0.5046169909481237,0.7528759820151515
30,,,A1153ZIEQX0ZJ8,1,2023-11-28_15h38.48.975,color_task,2023.2.2,Win32,60.00600060000001,,,,,,,,,,,,,,,,,,,,,,,,,,,,,,,,,,,,,,,,,,,,,,,,,,,,,,,,,,,,,,,208.5102,209.003,,,bc,3.5,3.5,0.0,catch,"[""bc"",3.5]",Yes,,,,,,,,,,,,,,,,,,,,209.0032,212.4917,space,212.4918,213.7857,2.0,1.043,6.0,0.0,6.0,0.0,1.0,1.5166,,,,,,,,,,,,0.4657404230128503,8.122590767582912e-05,0.5046169909481237,0.7528759820151515
31,,,A1153ZIEQX0ZJ8,1,2023-11-28_15h38.48.975,color_task,2023.2.2,Win32,60.00600060000001,,,,,,,,,,,,,,,,,,,,,,,,,,,,,,,,,,,,,,,,,,,,,,,,,,,,,,,,,,,,,,,213.786,214.2861,,,g-b,5.0,2.5,2.5,boundary,"[""g-b"",5]",No,,,,,,,,,,,,,,,,,,,,214.2862,219.2763,,219.2765,222.8353,3.476851852,3.3098,7.0,0.0,7.0,0.0,1.0,,,,,,,,,,,,,0.4657404230128503,8.122590767582912e-05,0.5046169909481237,0.7528759820151515
32,,,A1153ZIEQX0ZJ8,1,2023-11-28_15h38.48.975,color_task,2023.2.2,Win32,60.00600060000001,,,,,,,,,,,,,,,,,,,,,,,,,,,,,,,,,,,,,,,,,,,,,,,,,,,,,,,,,,,,,,,222.8358,223.3352,,,g,0.5,0.5,0.0,continious,"[""g"",0.5]",No,,,,,,,,,,,,,,,,,,,,223.3352,223.8261,,223.8262,226.285,0.990740741,2.2158,8.0,0.0,8.0,0.0,1.0,,,,,,,,,,,,,0.4657404230128503,8.122590767582912e-05,0.5046169909481237,0.7528759820151515
33,,,A1153ZIEQX0ZJ8,1,2023-11-28_15h38.48.975,color_task,2023.2.2,Win32,60.00600060000001,,,,,,,,,,,,,,,,,,,,,,,,,,,,,,,,,,,,,,,,,,,,,,,,,,,,,,,,,,,,,,,226.2852,226.785,,,g-b,2.5,1.25,1.25,boundary,"[""g-b"",2.5]",No,,,,,,,,,,,,,,,,,,,,226.785,229.2755,,229.2756,232.3181,1.990740741,2.7912,9.0,0.0,9.0,0.0,1.0,,,,,,,,,,,,,0.4657404230128503,8.122590767582912e-05,0.5046169909481237,0.7528759820151515
34,,,A1153ZIEQX0ZJ8,1,2023-11-28_15h38.48.975,color_task,2023.2.2,Win32,60.00600060000001,,,,,,,,,,,,,,,,,,,,,,,,,,,,,,,,,,,,,,,,,,,,,,,,,,,,,,,,,,,,,,,232.3184,232.8181,,,y,1.0,1.0,0.0,continious,"[""y"",1]",No,,,,,,,,,,,,,,,,,,,,232.8181,233.8088,,233.80900000000003,237.7181,1.49537037,3.6678,10.0,0.0,10.0,0.0,1.0,,,,,,,,,,,,,0.4657404230128503,8.122590767582912e-05,0.5046169909481237,0.7528759820151515
35,,,A1153ZIEQX0ZJ8,1,2023-11-28_15h38.48.975,color_task,2023.2.2,Win32,60.00600060000001,,,,,,,,,,,,,,,,,,,,,,,,,,,,,,,,,,,,,,,,,,,,,,,,,,,,,,,,,,,,,,,237.7193,238.2185,,,gc,3.5,3.5,0.0,catch,"[""gc"",3.5]",Yes,,,,,,,,,,,,,,,,,,,,238.2185,241.7082,space,241.7084,244.4342,2.00462963,2.4844,11.0,0.0,11.0,0.0,1.0,0.784,,,,,,,,,,,,0.4657404230128503,8.122590767582912e-05,0.5046169909481237,0.7528759820151515
36,,,A1153ZIEQX0ZJ8,1,2023-11-28_15h38.48.975,color_task,2023.2.2,Win32,60.00600060000001,,,,,,,,,,,,,,,,,,,,,,,,,,,,,,,,,,,,,,,,,,,,,,,,,,,,,,,,,,,,,,,244.4344,244.9411,,,b,5.0,5.0,0.0,continious,"[""b"",5]",No,,,,,,,,,,,,,,,,,,,,244.9411,249.9411,,249.9412,253.5173,4.0,3.3354,12.0,0.0,12.0,0.0,1.0,,,,,,,,,,,,,0.4657404230128503,8.122590767582912e-05,0.5046169909481237,0.7528759820151515
37,,,A1153ZIEQX0ZJ8,1,2023-11-28_15h38.48.975,color_task,2023.2.2,Win32,60.00600060000001,,,,,,,,,,,,,,,,,,,,,,,,,,,,,,,,,,,,,,,,,,,,,,,,,,,,,,,,,,,,,,,253.5186,254.0249,,,y,3.0,3.0,0.0,continious,"[""y"",3]",No,,,,,,,,,,,,,,,,,,,,254.0249,257.025,,257.025,259.6675,2.0,2.3975,13.0,0.0,13.0,0.0,1.0,,,,,,,,,,,,,0.4657404230128503,8.122590767582912e-05,0.5046169909481237,0.7528759820151515
38,,,A1153ZIEQX0ZJ8,1,2023-11-28_15h38.48.975,color_task,2023.2.2,Win32,60.00600060000001,,,,,,,,,,,,,,,,,,,,,,,,,,,,,,,,,,,,,,,,,,,,,,,,,,,,,,,,,,,,,,,259.6683,260.1578,,,g-b,3.0,1.5,1.5,boundary,"[""g-b"",3]",No,,,,,,,,,,,,,,,,,,,,260.1578,263.1572,,263.1573,265.407,1.99537037,1.9992,14.0,0.0,14.0,0.0,1.0,,,,,,,,,,,,,0.4657404230128503,8.122590767582912e-05,0.5046169909481237,0.7528759820151515
39,,,A1153ZIEQX0ZJ8,1,2023-11-28_15h38.48.975,color_task,2023.2.2,Win32,60.00600060000001,,,,,,,,,,,,,,,,,,,,,,,,,,,,,,,,,,,,,,,,,,,,,,,,,,,,,,,,,,,,,,,265.4073,265.9073,,,y-g,0.5,0.25,0.25,boundary,"[""y-g"",0.5]",No,,,,,,,,,,,,,,,,,,,,265.9074,266.4069,,266.4072,268.9903,0.490740741,2.3333,15.0,0.0,15.0,0.0,1.0,,,,,,,,,,,,,0.4657404230128503,8.122590767582912e-05,0.5046169909481237,0.7528759820151515
40,,,A1153ZIEQX0ZJ8,1,2023-11-28_15h38.48.975,color_task,2023.2.2,Win32,60.00600060000001,,,,,,,,,,,,,,,,,,,,,,,,,,,,,,,,,,,,,,,,,,,,,,,,,,,,,,,,,,,,,,,268.9906,269.4829,,,g,4.0,4.0,0.0,continious,"[""g"",4]",No,,,,,,,,,,,,,,,,,,,,269.4829,273.4733,,273.4735,276.0658,2.509259259,2.3437,16.0,0.0,16.0,0.0,1.0,,,,,,,,,,,,,0.4657404230128503,8.122590767582912e-05,0.5046169909481237,0.7528759820151515
41,,,A1153ZIEQX0ZJ8,1,2023-11-28_15h38.48.975,color_task,2023.2.2,Win32,60.00600060000001,,,,,,,,,,,,,,,,,,,,,,,,,,,,,,,,,,,,,,,,,,,,,,,,,,,,,,,,,,,,,,,276.0661,276.5565,,,b,1.5,1.5,0.0,continious,"[""b"",1.5]",No,,,,,,,,,,,,,,,,,,,,276.5566,278.0564,,278.0565,281.9062,2.0,3.6041,17.0,0.0,17.0,0.0,1.0,,,,,,,,,,,,,0.4657404230128503,8.122590767582912e-05,0.5046169909481237,0.7528759820151515
42,,,A1153ZIEQX0ZJ8,1,2023-11-28_15h38.48.975,color_task,2023.2.2,Win32,60.00600060000001,,,,,,,,,,,,,,,,,,,,,,,,,,,,,,,,,,,,,,,,,,,,,,,,,,,,,,,,,,,,,,,281.9068,282.399,,,yc,3.0,3.0,0.0,catch,"[""yc"",3]",Yes,,,,,,,,,,,,,,,,,,,,282.399,285.3895,space,285.3897,287.556,2.0,1.9109,18.0,0.0,18.0,0.0,1.0,0.8504,,,,,,,,,,,,0.4657404230128503,8.122590767582912e-05,0.5046169909481237,0.7528759820151515
43,,,A1153ZIEQX0ZJ8,1,2023-11-28_15h38.48.975,color_task,2023.2.2,Win32,60.00600060000001,,,,,,,,,,,,,,,,,,,,,,,,,,,,,,,,,,,,,,,,,,,,,,,,,,,,,,,,,,,,,,,287.5563,288.0487,,,g-y,2.5,1.25,1.25,boundary,"[""g-y"",2.5]",No,,,,,,,,,,,,,,,,,,,,288.0487,290.5388,,290.5389,294.1726,1.490740741,3.3836,19.0,0.0,19.0,0.0,1.0,,,,,,,,,,,,,0.4657404230128503,8.122590767582912e-05,0.5046169909481237,0.7528759820151515
44,,,A1153ZIEQX0ZJ8,1,2023-11-28_15h38.48.975,color_task,2023.2.2,Win32,60.00600060000001,,,,,,,,,,,,,,,,,,,,,,,,,,,,,,,,,,,,,,,,,,,,,,,,,,,,,,,,,,,,,,,294.1733,294.6649,,,y-g,4.0,2.0,2.0,boundary,"[""y-g"",4]",No,,,,,,,,,,,,,,,,,,,,294.665,298.6557,,298.6558,301.548,2.0,2.6412,20.0,0.0,20.0,0.0,1.0,,,,,,,,,,,,,0.4657404230128503,8.122590767582912e-05,0.5046169909481237,0.7528759820151515
45,,,A1153ZIEQX0ZJ8,1,2023-11-28_15h38.48.975,color_task,2023.2.2,Win32,60.00600060000001,,,,,,,,,,,,,,,,,,,,,,,,,,,,,,,,,,,,,,,,,,,,,,,,,,,,,,,,,,,,,,,301.5484,302.0479,,,y,2.5,2.5,0.0,continious,"[""y"",2.5]",No,,,,,,,,,,,,,,,,,,,,302.0479,304.5383,,304.5385,307.0385,1.990740741,2.2498,21.0,0.0,21.0,0.0,1.0,,,,,,,,,,,,,0.4657404230128503,8.122590767582912e-05,0.5046169909481237,0.7528759820151515
46,,,A1153ZIEQX0ZJ8,1,2023-11-28_15h38.48.975,color_task,2023.2.2,Win32,60.00600060000001,,,,,,,,,,,,,,,,,,,,,,,,,,,,,,,,,,,,,,,,,,,,,,,,,,,,,,,,,,,,,,,307.0388,307.531,,,yc,2.5,2.5,0.0,catch,"[""yc"",2.5]",Yes,,,,,,,,,,,,,,,,,,,,307.531,310.0219,space,310.0222,313.0973,2.00462963,2.8327,22.0,0.0,22.0,0.0,1.0,0.8667,,,,,,,,,,,,0.4657404230128503,8.122590767582912e-05,0.5046169909481237,0.7528759820151515
47,,,A1153ZIEQX0ZJ8,1,2023-11-28_15h38.48.975,color_task,2023.2.2,Win32,60.00600060000001,,,,,,,,,,,,,,,,,,,,,,,,,,,,,,,,,,,,,,,,,,,,,,,,,,,,,,,,,,,,,,,313.0976,313.598,,,y,1.5,1.5,0.0,continious,"[""y"",1.5]",No,,,,,,,,,,,,,,,,,,,,313.5981,315.0881,,315.0882,317.3373,1.00462963,1.9979,23.0,0.0,23.0,0.0,1.0,,,,,,,,,,,,,0.4657404230128503,8.122590767582912e-05,0.5046169909481237,0.7528759820151515
48,,,A1153ZIEQX0ZJ8,1,2023-11-28_15h38.48.975,color_task,2023.2.2,Win32,60.00600060000001,,,,,,,,,,,,,,,,,,,,,,,,,,,,,,,,,,,,,,,,,,,,,,,,,,,,,,,,,,,,,,,317.3376,317.8305,,,g-y,0.5,0.25,0.25,boundary,"[""g-y"",0.5]",No,,,,,,,,,,,,,,,,,,,,317.8305,318.3209,,318.3211,321.1637,1.00462963,2.5914,24.0,0.0,24.0,0.0,1.0,,,,,,,,,,,,,0.4657404230128503,8.122590767582912e-05,0.5046169909481237,0.7528759820151515
49,,,A1153ZIEQX0ZJ8,1,2023-11-28_15h38.48.975,color_task,2023.2.2,Win32,60.00600060000001,,,,,,,,,,,,,,,,,,,,,,,,,,,,,,,,,,,,,,,,,,,,,,,,,,,,,,,,,,,,,,,321.1638,321.6692,,,g-y,3.0,1.5,1.5,boundary,"[""g-y"",3]",No,,,,,,,,,,,,,,,,,,,,321.6692,324.671,,324.6712,327.388,1.509259259,2.4654,25.0,0.0,25.0,0.0,1.0,,,,,,,,,,,,,0.4657404230128503,8.122590767582912e-05,0.5046169909481237,0.7528759820151515
50,,,A1153ZIEQX0ZJ8,1,2023-11-28_15h38.48.975,color_task,2023.2.2,Win32,60.00600060000001,,,,,,,,,,,,,,,,,,,,,,,,,,,,,,,,,,,,,,,,,,,,,,,,,,,,,,,,,,,,,,,327.3886,327.8808,,,y,3.5,3.5,0.0,continious,"[""y"",3.5]",No,,,,,,,,,,,,,,,,,,,,327.8809,331.3709,,331.3711,334.7796,2.5,3.1694,26.0,0.0,26.0,0.0,1.0,,,,,,,,,,,,,0.4657404230128503,8.122590767582912e-05,0.5046169909481237,0.7528759820151515
51,,,A1153ZIEQX0ZJ8,1,2023-11-28_15h38.48.975,color_task,2023.2.2,Win32,60.00600060000001,,,,,,,,,,,,,,,,,,,,,,,,,,,,,,,,,,,,,,,,,,,,,,,,,,,,,,,,,,,,,,,334.7801,335.2799,,,y-g,1.5,0.75,0.75,boundary,"[""y-g"",1.5]",No,,,,,,,,,,,,,,,,,,,,335.2799,336.7701,,336.7702,338.4461,2.490740741,1.4242,27.0,0.0,27.0,0.0,1.0,,,,,,,,,,,,,0.4657404230128503,8.122590767582912e-05,0.5046169909481237,0.7528759820151515
52,,,A1153ZIEQX0ZJ8,1,2023-11-28_15h38.48.975,color_task,2023.2.2,Win32,60.00600060000001,,,,,,,,,,,,,,,,,,,,,,,,,,,,,,,,,,,,,,,,,,,,,,,,,,,,,,,,,,,,,,,338.4464,338.9461,,,y-g,2.0,1.0,1.0,boundary,"[""y-g"",2]",No,,,,,,,,,,,,,,,,,,,,338.9461,340.9366,,340.9367,343.2959,2.00462963,2.1169,28.0,0.0,28.0,0.0,1.0,,,,,,,,,,,,,0.4657404230128503,8.122590767582912e-05,0.5046169909481237,0.7528759820151515
53,,,A1153ZIEQX0ZJ8,1,2023-11-28_15h38.48.975,color_task,2023.2.2,Win32,60.00600060000001,,,,,,,,,,,,,,,,,,,,,,,,,,,,,,,,,,,,,,,,,,,,,,,,,,,,,,,,,,,,,,,343.2961,343.7959,,,g-y,4.5,2.25,2.25,boundary,"[""g-y"",4.5]",No,,,,,,,,,,,,,,,,,,,,343.7959,348.2862,,348.2864,349.9039,1.990740741,1.3681,29.0,0.0,29.0,0.0,1.0,,,,,,,,,,,,,0.4657404230128503,8.122590767582912e-05,0.5046169909481237,0.7528759820151515
54,,,A1153ZIEQX0ZJ8,1,2023-11-28_15h38.48.975,color_task,2023.2.2,Win32,60.00600060000001,,,,,,,,,,,,,,,,,,,,,,,,,,,,,,,,,,,,,,,,,,,,,,,,,,,,,,,,,,,,,,,349.9047,350.3958,,,y-g,2.5,1.25,1.25,boundary,"[""y-g"",2.5]",No,,,,,,,,,,,,,,,,,,,,350.3958,352.886,,352.8863,355.3119,2.018518519,2.1830000000000003,30.0,0.0,30.0,0.0,1.0,,,,,,,,,,,,,0.4657404230128503,8.122590767582912e-05,0.5046169909481237,0.7528759820151515
55,,,A1153ZIEQX0ZJ8,1,2023-11-28_15h38.48.975,color_task,2023.2.2,Win32,60.00600060000001,,,,,,,,,,,,,,,,,,,,,,,,,,,,,,,,,,,,,,,,,,,,,,,,,,,,,,,,,,,,,,,355.3121,355.8122,,,g-b,4.5,2.25,2.25,boundary,"[""g-b"",4.5]",No,,,,,,,,,,,,,,,,,,,,355.8122,360.3023,,360.3025,361.9952,1.986111111,1.4477,31.0,0.0,31.0,0.0,1.0,,,,,,,,,,,,,0.4657404230128503,8.122590767582912e-05,0.5046169909481237,0.7528759820151515
56,,,A1153ZIEQX0ZJ8,1,2023-11-28_15h38.48.975,color_task,2023.2.2,Win32,60.00600060000001,,,,,,,,,,,,,,,,,,,,,,,,,,,,,,,,,,,,,,,,,,,,,,,,,,,,,,,,,,,,,,,361.9958,362.4949,,,g-y,1.0,0.5,0.5,boundary,"[""g-y"",1]",No,,,,,,,,,,,,,,,,,,,,362.4949,363.4855,,363.4857,367.4613,2.00462963,3.7375,32.0,0.0,32.0,0.0,1.0,,,,,,,,,,,,,0.4657404230128503,8.122590767582912e-05,0.5046169909481237,0.7528759820151515
57,,,A1153ZIEQX0ZJ8,1,2023-11-28_15h38.48.975,color_task,2023.2.2,Win32,60.00600060000001,,,,,,,,,,,,,,,,,,,,,,,,,,,,,,,,,,,,,,,,,,,,,,,,,,,,,,,,,,,,,,,367.4618,367.969,,,y,4.0,4.0,0.0,continious,"[""y"",4]",No,,,,,,,,,,,,,,,,,,,,367.969,371.9687,,371.9689,374.2276,3.50462963,2.0133,33.0,0.0,33.0,0.0,1.0,,,,,,,,,,,,,0.4657404230128503,8.122590767582912e-05,0.5046169909481237,0.7528759820151515
58,,,A1153ZIEQX0ZJ8,1,2023-11-28_15h38.48.975,color_task,2023.2.2,Win32,60.00600060000001,,,,,,,,,,,,,,,,,,,,,,,,,,,,,,,,,,,,,,,,,,,,,,,,,,,,,,,,,,,,,,,374.228,374.7276,,,y-g,3.0,1.5,1.5,boundary,"[""y-g"",3]",No,,,,,,,,,,,,,,,,,,,,374.7276,377.718,,377.7182,381.7439,2.50462963,3.7809,34.0,0.0,34.0,0.0,1.0,,,,,,,,,,,,,0.4657404230128503,8.122590767582912e-05,0.5046169909481237,0.7528759820151515
59,,,A1153ZIEQX0ZJ8,1,2023-11-28_15h38.48.975,color_task,2023.2.2,Win32,60.00600060000001,,,,,,,,,,,,,,,,,,,,,,,,,,,,,,,,,,,,,,,,,,,,,,,,,,,,,,,,,,,,,,,381.7445,382.2442,,,g-b,3.5,1.75,1.75,boundary,"[""g-b"",3.5]",No,,,,,,,,,,,,,,,,,,,,382.2442,385.7342,,385.7343,387.7769,1.5,1.7919999999999998,35.0,0.0,35.0,0.0,1.0,,,,,,,,,,,,,0.4657404230128503,8.122590767582912e-05,0.5046169909481237,0.7528759820151515
60,,,A1153ZIEQX0ZJ8,1,2023-11-28_15h38.48.975,color_task,2023.2.2,Win32,60.00600060000001,,,,,,,,,,,,,,,,,,,,,,,,,,,,,,,,,,,,,,,,,,,,,,,,,,,,,,,,,,,,,,,387.7772,388.2772,,,g-y,5.0,2.5,2.5,boundary,"[""g-y"",5]",No,,,,,,,,,,,,,,,,,,,,388.2773,393.2675,,393.2677,395.0766,1.509259259,1.5684,36.0,0.0,36.0,0.0,1.0,,,,,,,,,,,,,0.4657404230128503,8.122590767582912e-05,0.5046169909481237,0.7528759820151515
61,,,A1153ZIEQX0ZJ8,1,2023-11-28_15h38.48.975,color_task,2023.2.2,Win32,60.00600060000001,,,,,,,,,,,,,,,,,,,,,,,,,,,,,,,,,,,,,,,,,,,,,,,,,,,,,,,,,,,,,,,395.0769,395.5765,,,b,4.0,4.0,0.0,continious,"[""b"",4]",No,,,,,,,,,,,,,,,,,,,,395.5766,399.5669,,399.5672,401.6595,1.490740741,1.8436,37.0,0.0,37.0,0.0,1.0,,,,,,,,,,,,,0.4657404230128503,8.122590767582912e-05,0.5046169909481237,0.7528759820151515
62,,,A1153ZIEQX0ZJ8,1,2023-11-28_15h38.48.975,color_task,2023.2.2,Win32,60.00600060000001,,,,,,,,,,,,,,,,,,,,,,,,,,,,,,,,,,,,,,,,,,,,,,,,,,,,,,,,,,,,,,,401.6598,402.1595,,,b,0.5,0.5,0.0,continious,"[""b"",0.5]",No,,,,,,,,,,,,,,,,,,,,402.1596,402.6505,,402.6507,405.1593,2.486111111,2.2695,38.0,0.0,38.0,0.0,1.0,,,,,,,,,,,,,0.4657404230128503,8.122590767582912e-05,0.5046169909481237,0.7528759820151515
63,,,A1153ZIEQX0ZJ8,1,2023-11-28_15h38.48.975,color_task,2023.2.2,Win32,60.00600060000001,,,,,,,,,,,,,,,,,,,,,,,,,,,,,,,,,,,,,,,,,,,,,,,,,,,,,,,,,,,,,,,405.1597,405.6593,,,g,3.0,3.0,0.0,continious,"[""g"",3]",No,,,,,,,,,,,,,,,,,,,,405.6593,408.6496,,408.6498,411.7424,1.986111111,2.8465,39.0,0.0,39.0,0.0,1.0,,,,,,,,,,,,,0.4657404230128503,8.122590767582912e-05,0.5046169909481237,0.7528759820151515
64,,,A1153ZIEQX0ZJ8,1,2023-11-28_15h38.48.975,color_task,2023.2.2,Win32,60.00600060000001,,,,,,,,,,,,,,,,,,,,,,,,,,,,,,,,,,,,,,,,,,,,,,,,,,,,,,,,,,,,,,,411.7426,412.2424,,,b,3.5,3.5,0.0,continious,"[""b"",3.5]",No,,,,,,,,,,,,,,,,,,,,412.2424,415.7328,,415.733,417.7921,2.990740741,1.8099,40.0,0.0,40.0,0.0,1.0,,,,,,,,,,,,,0.4657404230128503,8.122590767582912e-05,0.5046169909481237,0.7528759820151515
65,,,A1153ZIEQX0ZJ8,1,2023-11-28_15h38.48.975,color_task,2023.2.2,Win32,60.00600060000001,,,,,,,,,,,,,,,,,,,,,,,,,,,,,,,,,,,,,,,,,,,,,,,,,,,,,,,,,,,,,,,417.7924,418.2921,,,g,4.5,4.5,0.0,continious,"[""g"",4.5]",No,,,,,,,,,,,,,,,,,,,,418.2921,422.7825,,422.7828,425.0751,1.99537037,2.0454,41.0,0.0,41.0,0.0,1.0,,,,,,,,,,,,,0.4657404230128503,8.122590767582912e-05,0.5046169909481237,0.7528759820151515
66,,,A1153ZIEQX0ZJ8,1,2023-11-28_15h38.48.975,color_task,2023.2.2,Win32,60.00600060000001,,,,,,,,,,,,,,,,,,,,,,,,,,,,,,,,,,,,,,,,,,,,,,,,,,,,,,,,,,,,,,,425.0753,425.5751,,,g-b,1.5,0.75,0.75,boundary,"[""g-b"",1.5]",No,,,,,,,,,,,,,,,,,,,,425.5751,427.0657,,427.0659,428.6155,2.5,1.2882,42.0,0.0,42.0,0.0,1.0,,,,,,,,,,,,,0.4657404230128503,8.122590767582912e-05,0.5046169909481237,0.7528759820151515
67,,,A1153ZIEQX0ZJ8,1,2023-11-28_15h38.48.975,color_task,2023.2.2,Win32,60.00600060000001,,,,,,,,,,,,,,,,,,,,,,,,,,,,,,,,,,,,,,,,,,,,,,,,,,,,,,,,,,,,,,,428.6157,429.1088,,,y,4.5,4.5,0.0,continious,"[""y"",4.5]",No,,,,,,,,,,,,,,,,,,,,429.1088,433.5984,,433.5986,434.8245,3.49537037,0.9768,43.0,0.0,43.0,0.0,1.0,,,,,,,,,,,,,0.4657404230128503,8.122590767582912e-05,0.5046169909481237,0.7528759820151515
68,,,A1153ZIEQX0ZJ8,1,2023-11-28_15h38.48.975,color_task,2023.2.2,Win32,60.00600060000001,,,,,,,,,,,,,,,,,,,,,,,,,,,,,,,,,,,,,,,,,,,,,,,,,,,,,,,,,,,,,,,434.8248,435.3245,,,g,5.0,5.0,0.0,continious,"[""g"",5]",No,,,,,,,,,,,,,,,,,,,,435.3245,440.3148,,440.3149,442.9908,3.981481481,2.427,44.0,0.0,44.0,0.0,1.0,,,,,,,,,,,,,0.4657404230128503,8.122590767582912e-05,0.5046169909481237,0.7528759820151515
69,,,A1153ZIEQX0ZJ8,1,2023-11-28_15h38.48.975,color_task,2023.2.2,Win32,60.00600060000001,,,,,,,,,,,,,,,,,,,,,,,,,,,,,,,,,,,,,,,,,,,,,,,,,,,,,,,,,,,,,,,442.9913,443.4798,,,g-y,4.0,2.0,2.0,boundary,"[""g-y"",4]",No,,,,,,,,,,,,,,,,,,,,443.4798,447.4814,,447.4816,450.8237,3.49537037,3.0929,45.0,0.0,45.0,0.0,1.0,,,,,,,,,,,,,0.4657404230128503,8.122590767582912e-05,0.5046169909481237,0.7528759820151515
70,,,A1153ZIEQX0ZJ8,1,2023-11-28_15h38.48.975,color_task,2023.2.2,Win32,60.00600060000001,,,,,,,,,,,,,,,,,,,,,,,,,,,,,,,,,,,,,,,,,,,,,,,,,,,,,,,,,,,,,,,450.824,451.324,,,g-y,2.0,1.0,1.0,boundary,"[""g-y"",2]",No,,,,,,,,,,,,,,,,,,,,451.324,453.3143,,453.3145,458.05,1.986111111,4.4895,46.0,0.0,46.0,0.0,1.0,,,,,,,,,,,,,0.4657404230128503,8.122590767582912e-05,0.5046169909481237,0.7528759820151515
71,,,A1153ZIEQX0ZJ8,1,2023-11-28_15h38.48.975,color_task,2023.2.2,Win32,60.00600060000001,,,,,,,,,,,,,,,,,,,,,,,,,,,,,,,,,,,,,,,,,,,,,,,,,,,,,,,,,,,,,,,458.052,458.54,,,g-y,1.5,0.75,0.75,boundary,"[""g-y"",1.5]",No,,,,,,,,,,,,,,,,,,,,458.5401,460.0307,,460.0309,465.7064,0.981481481,5.4326,47.0,0.0,47.0,0.0,1.0,,,,,,,,,,,,,0.4657404230128503,8.122590767582912e-05,0.5046169909481237,0.7528759820151515
72,,,A1153ZIEQX0ZJ8,1,2023-11-28_15h38.48.975,color_task,2023.2.2,Win32,60.00600060000001,,,,,,,,,,,,,,,,,,,,,,,,,,,,,,,,,,,,,,,,,,,,,,,,,,,,,,,,,,,,,,,465.7074,466.197,,,g-b,2.0,1.0,1.0,boundary,"[""g-b"",2]",No,,,,,,,,,,,,,,,,,,,,466.197,468.1967,,468.1969,470.5563,1.50462963,2.1072,48.0,0.0,48.0,0.0,1.0,,,,,,,,,,,,,0.4657404230128503,8.122590767582912e-05,0.5046169909481237,0.7528759820151515
73,,,A1153ZIEQX0ZJ8,1,2023-11-28_15h38.48.975,color_task,2023.2.2,Win32,60.00600060000001,,,,,,,,,,,,,,,,,,,,,,,,,,,,,,,,,,,,,,,,,,,,,,,,,,,,,,,,,,,,,,,470.557,471.0564,,,bc,2.5,2.5,0.0,catch,"[""bc"",2.5]",Yes,,,,,,,,,,,,,,,,,,,,471.0564,473.5566,,473.5573,476.3558,2.0,2.5557,49.0,0.0,49.0,0.0,1.0,,,,,,,,,,,,,0.4657404230128503,8.122590767582912e-05,0.5046169909481237,0.7528759820151515
74,,,A1153ZIEQX0ZJ8,1,2023-11-28_15h38.48.975,color_task,2023.2.2,Win32,60.00600060000001,,,,,,,,,,,,,,,,,,,,,,,,,,,,,,,,,,,,,,,,,,,,,,,,,,,,,,,,,,,,,,,476.356,476.856,,,g-b,4.0,2.0,2.0,boundary,"[""g-b"",4]",No,,,,,,,,,,,,,,,,,,,,476.856,480.8464,,480.8466,482.628,2.018518519,1.5265,50.0,0.0,50.0,0.0,1.0,,,,,,,,,,,,,0.4657404230128503,8.122590767582912e-05,0.5046169909481237,0.7528759820151515
75,,,A1153ZIEQX0ZJ8,1,2023-11-28_15h38.48.975,color_task,2023.2.2,Win32,60.00600060000001,,,,,,,,,,,,,,,,,,,,,,,,,,,,,,,,,,,,,,,,,,,,,,,,,,,,,,,,,,,,,,,482.6282,483.1225,,,y,0.5,0.5,0.0,continious,"[""y"",0.5]",No,,,,,,,,,,,,,,,,,,,,483.1225,483.6126,,483.6128,486.5053,2.00462963,2.6501,51.0,0.0,51.0,0.0,1.0,,,,,,,,,,,,,0.4657404230128503,8.122590767582912e-05,0.5046169909481237,0.7528759820151515
76,,,A1153ZIEQX0ZJ8,1,2023-11-28_15h38.48.975,color_task,2023.2.2,Win32,60.00600060000001,,,,,,,,,,,,,,,,,,,,,,,,,,,,,,,,,,,,,,,,,,,,,,,,,,,,,,,,,,,,,,,486.5055,487.0057,,,y-g,3.5,1.75,1.75,boundary,"[""y-g"",3.5]",No,,,,,,,,,,,,,,,,,,,,487.0057,490.4959,,490.4961,493.3215,2.0,2.5765,52.0,0.0,52.0,0.0,1.0,,,,,,,,,,,,,0.4657404230128503,8.122590767582912e-05,0.5046169909481237,0.7528759820151515
77,,,A1153ZIEQX0ZJ8,1,2023-11-28_15h38.48.975,color_task,2023.2.2,Win32,60.00600060000001,,,,,,,,,,,,,,,,,,,,,,,,,,,,,,,,,,,,,,,,,,,,,,,,,,,,,,,,,,,,,,,493.322,493.8216,,,g,2.0,2.0,0.0,continious,"[""g"",2]",No,,,,,,,,,,,,,,,,,,,,493.8216,495.812,,495.8122,500.9712,2.509259259,4.9145,53.0,0.0,53.0,0.0,1.0,,,,,,,,,,,,,0.4657404230128503,8.122590767582912e-05,0.5046169909481237,0.7528759820151515
78,,,A1153ZIEQX0ZJ8,1,2023-11-28_15h38.48.975,color_task,2023.2.2,Win32,60.00600060000001,,,,,,,,,,,,,,,,,,,,,,,,,,,,,,,,,,,,,,,,,,,,,,,,,,,,,,,,,,,,,,,500.9718,501.4711,,,g-b,0.5,0.25,0.25,boundary,"[""g-b"",0.5]",No,,,,,,,,,,,,,,,,,,,,501.4712,501.9618,,501.9621,505.6712,1.990740741,3.4666,54.0,0.0,54.0,0.0,1.0,,,,,,,,,,,,,0.4657404230128503,8.122590767582912e-05,0.5046169909481237,0.7528759820151515
79,,,A1153ZIEQX0ZJ8,1,2023-11-28_15h38.48.975,color_task,2023.2.2,Win32,60.00600060000001,,,,,,,,,,,,,,,,,,,,,,,,,,,,,,,,,,,,,,,,,,,,,,,,,,,,,,,,,,,,,,,505.6724,506.1713,,,y-g,5.0,2.5,2.5,boundary,"[""y-g"",5]",No,,,,,,,,,,,,,,,,,,,,506.1713,511.1618,,511.1619,512.7873,1.99537037,1.3785,55.0,0.0,55.0,0.0,1.0,,,,,,,,,,,,,0.4657404230128503,8.122590767582912e-05,0.5046169909481237,0.7528759820151515
80,,,A1153ZIEQX0ZJ8,1,2023-11-28_15h38.48.975,color_task,2023.2.2,Win32,60.00600060000001,,,,,,,,,,,,,,,,,,,,,,,,,,,,,,,,,,,,,,,,,,,,,,,,,,,,,,,,,,,,,,,512.7875,513.2763,,,g,1.0,1.0,0.0,continious,"[""g"",1]",No,,,,,,,,,,,,,,,,,,,,513.2763,514.2777,,514.2779,516.6538,1.49537037,2.1328,56.0,0.0,56.0,0.0,1.0,,,,,,,,,,,,,0.4657404230128503,8.122590767582912e-05,0.5046169909481237,0.7528759820151515
81,,,A1153ZIEQX0ZJ8,1,2023-11-28_15h38.48.975,color_task,2023.2.2,Win32,60.00600060000001,,,,,,,,,,,,,,,,,,,,,,,,,,,,,,,,,,,,,,,,,,,,,,,,,,,,,,,,,,,,,,,516.654,517.1442,,,gc,3.0,3.0,0.0,catch,"[""gc"",3]",Yes,,,,,,,,,,,,,,,,,,,,517.1443,520.144,space,520.1442,521.8202,1.49537037,1.4273,57.0,0.0,57.0,0.0,1.0,1.4336,,,,,,,,,,,,0.4657404230128503,8.122590767582912e-05,0.5046169909481237,0.7528759820151515
82,,,A1153ZIEQX0ZJ8,1,2023-11-28_15h38.48.975,color_task,2023.2.2,Win32,60.00600060000001,,,,,,,,,,,,,,,,,,,,,,,,,,,,,,,,,,,,,,,,,,,,,,,,,,,,,,,,,,,,,,,521.8204,522.3201,,,b,2.5,2.5,0.0,continious,"[""b"",2.5]",No,,,,,,,,,,,,,,,,,,,,522.3201,524.8105,,524.8106,527.6698,1.00462963,2.6167,58.0,0.0,58.0,0.0,1.0,,,,,,,,,,,,,0.4657404230128503,8.122590767582912e-05,0.5046169909481237,0.7528759820151515
83,,,A1153ZIEQX0ZJ8,1,2023-11-28_15h38.48.975,color_task,2023.2.2,Win32,60.00600060000001,,,,,,,,,,,,,,,,,,,,,,,,,,,,,,,,,,,,,,,,,,,,,,,,,,,,,,,,,,,,,,,527.6704,528.1698,,,g-b,1.0,0.5,0.5,boundary,"[""g-b"",1]",No,,,,,,,,,,,,,,,,,,,,528.1698,529.1609,,529.1611,531.4365,0.99537037,2.0346,59.0,0.0,59.0,0.0,1.0,,,,,,,,,,,,,0.4657404230128503,8.122590767582912e-05,0.5046169909481237,0.7528759820151515
84,,,A1153ZIEQX0ZJ8,1,2023-11-28_15h38.48.975,color_task,2023.2.2,Win32,60.00600060000001,,,,,,,,,,,,,,,,,,,,,,,,,,,,,,,,,,,,,,,,,,,,,,,,,,,,,,,,,,,,,,,531.4368,531.9363,,,y,5.0,5.0,0.0,continious,"[""y"",5]",No,,,,,,,,,,,,,,,,,,,,531.9363,536.9267,,536.9269,539.7603,4.509259258999999,2.5768,60.0,0.0,60.0,0.0,1.0,,,,,,,,,,,,,0.4657404230128503,8.122590767582912e-05,0.5046169909481237,0.7528759820151515
85,,,A1153ZIEQX0ZJ8,1,2023-11-28_15h38.48.975,color_task,2023.2.2,Win32,60.00600060000001,,,,,,,,,,,,,,,,,,,,,,,,,,,,,,,,,,,,,,,,,,,,,,,,,,,,,,,,,,,,,,,539.7608,540.2526,,,b,3.0,3.0,0.0,continious,"[""b"",3]",No,,,,,,,,,,,,,,,,,,,,540.2526,543.243,,543.2432,545.9597,0.976851852,2.4746,61.0,0.0,61.0,0.0,1.0,,,,,,,,,,,,,0.4657404230128503,8.122590767582912e-05,0.5046169909481237,0.7528759820151515
86,,,A1153ZIEQX0ZJ8,1,2023-11-28_15h38.48.975,color_task,2023.2.2,Win32,60.00600060000001,,,,,,,,,,,,,,,,,,,,,,,,,,,,,,,,,,,,,,,,,,,,,,,,,,,,,,,,,,,,,,,545.96,546.4522,,,g,2.5,2.5,0.0,continious,"[""g"",2.5]",No,,,,,,,,,,,,,,,,,,,,546.4523,548.9427,,548.9429,551.1519999999998,1.50462963,1.9689,62.0,0.0,62.0,0.0,1.0,,,,,,,,,,,,,0.4657404230128503,8.122590767582912e-05,0.5046169909481237,0.7528759820151515
87,,,A1153ZIEQX0ZJ8,1,2023-11-28_15h38.48.975,color_task,2023.2.2,Win32,60.00600060000001,,,,,,,,,,,,,,,,,,,,,,,,,,,,,,,,,,,,,,,,,,,,,,,,,,,,,,,,,,,,,,,551.1523,551.6593,,,b,2.0,2.0,0.0,continious,"[""b"",2]",No,,,,,,,,,,,,,,,,,,,,551.6593,553.659,,553.6592,557.0018,1.481481481,3.1025,63.0,0.0,63.0,0.0,1.0,,,,,,,,,,,,,0.4657404230128503,8.122590767582912e-05,0.5046169909481237,0.7528759820151515
88,,,A1153ZIEQX0ZJ8,1,2023-11-28_15h38.48.975,color_task,2023.2.2,Win32,60.00600060000001,,,,,,,,,,,,,,,,,,,,,,,,,,,,,,,,,,,,,,,,,,,,,,,,,,,,,,,,,,,,,,,557.0021,557.502,,,g-y,3.5,1.75,1.75,boundary,"[""g-y"",3.5]",No,,,,,,,,,,,,,,,,,,,,557.5021,560.9922,,560.9924,563.4514,1.490740741,2.2191,64.0,0.0,64.0,0.0,1.0,,,,,,,,,,,,,0.4657404230128503,8.122590767582912e-05,0.5046169909481237,0.7528759820151515
89,,,A1153ZIEQX0ZJ8,1,2023-11-28_15h38.48.975,color_task,2023.2.2,Win32,60.00600060000001,,,,,,,,,,,,,,,,,,,,,,,,,,,,,,,,,,,,,,,,,,,,,,,,,,,,,,,,,,,,,,,563.4516,563.9513,,,g,3.5,3.5,0.0,continious,"[""g"",3.5]",No,,,,,,,,,,,,,,,,,,,,563.9514,567.4417,,567.4419,569.5844,1.49537037,1.8996,65.0,0.0,65.0,0.0,1.0,,,,,,,,,,,,,0.4657404230128503,8.122590767582912e-05,0.5046169909481237,0.7528759820151515
24,,,A14W0AXTJ3R19V,1,2023-11-28_12h39.12.645,color_task,2023.2.2,Win32,240.3268445,,,,,,,,,,,,,,,,,,,,,,,,,,,,,,,,,,,,,,,,,,,,,,,,,,,,,,,,,,,,,,,88.9463,89.4452,,,b,4.5,4.5,0.0,continious,"[""b"",4.5]",No,,,,,,,,,,,,,,,,,,,,89.4455,93.9461,,93.9463,95.6589,4.960595447,1.4618,0.0,0.0,0.0,0.0,1.0,,,,,,,,,,,,,0.8493959965625396,2.001077092177544e-19,1.2539802390781702,0.15523005892424244
25,,,A14W0AXTJ3R19V,1,2023-11-28_12h39.12.645,color_task,2023.2.2,Win32,240.3268445,,,,,,,,,,,,,,,,,,,,,,,,,,,,,,,,,,,,,,,,,,,,,,,,,,,,,,,,,,,,,,,95.6591,96.1588,,,y,1.0,1.0,0.0,continious,"[""y"",1]",No,,,,,,,,,,,,,,,,,,,,96.1588,97.159,,97.1591,98.3133,0.6830122590000001,0.907,1.0,0.0,1.0,0.0,1.0,,,,,,,,,,,,,0.8493959965625396,2.001077092177544e-19,1.2539802390781702,0.15523005892424244
26,,,A14W0AXTJ3R19V,1,2023-11-28_12h39.12.645,color_task,2023.2.2,Win32,240.3268445,,,,,,,,,,,,,,,,,,,,,,,,,,,,,,,,,,,,,,,,,,,,,,,,,,,,,,,,,,,,,,,98.3135,98.8134,,,g-b,4.0,2.0,2.0,boundary,"[""g-b"",4]",No,,,,,,,,,,,,,,,,,,,,98.8134,102.8141,,102.8142,103.7956,3.988616462,0.7336,2.0,0.0,2.0,0.0,1.0,,,,,,,,,,,,,0.8493959965625396,2.001077092177544e-19,1.2539802390781702,0.15523005892424244
27,,,A14W0AXTJ3R19V,1,2023-11-28_12h39.12.645,color_task,2023.2.2,Win32,240.3268445,,,,,,,,,,,,,,,,,,,,,,,,,,,,,,,,,,,,,,,,,,,,,,,,,,,,,,,,,,,,,,,103.7959,104.2964,,,y-g,2.0,1.0,1.0,boundary,"[""y-g"",2]",No,,,,,,,,,,,,,,,,,,,,104.2964,106.2959,,106.2961,107.4362,1.746935201,0.8905,3.0,0.0,3.0,0.0,1.0,,,,,,,,,,,,,0.8493959965625396,2.001077092177544e-19,1.2539802390781702,0.15523005892424244
28,,,A14W0AXTJ3R19V,1,2023-11-28_12h39.12.645,color_task,2023.2.2,Win32,240.3268445,,,,,,,,,,,,,,,,,,,,,,,,,,,,,,,,,,,,,,,,,,,,,,,,,,,,,,,,,,,,,,,107.4363,107.9358,,,b,4.0,4.0,0.0,continious,"[""b"",4]",No,,,,,,,,,,,,,,,,,,,,107.9358,111.9366,,111.9366,112.77,3.931698774,0.5865,4.0,0.0,4.0,0.0,1.0,,,,,,,,,,,,,0.8493959965625396,2.001077092177544e-19,1.2539802390781702,0.15523005892424244
29,,,A14W0AXTJ3R19V,1,2023-11-28_12h39.12.645,color_task,2023.2.2,Win32,240.3268445,,,,,,,,,,,,,,,,,,,,,,,,,,,,,,,,,,,,,,,,,,,,,,,,,,,,,,,,,,,,,,,112.7702,113.2701,,,y,3.0,3.0,0.0,continious,"[""y"",3]",No,,,,,,,,,,,,,,,,,,,,113.2701,116.2706,,116.2707,117.25,2.675131349,0.7319,5.0,0.0,5.0,0.0,1.0,,,,,,,,,,,,,0.8493959965625396,2.001077092177544e-19,1.2539802390781702,0.15523005892424244
30,,,A14W0AXTJ3R19V,1,2023-11-28_12h39.12.645,color_task,2023.2.2,Win32,240.3268445,,,,,,,,,,,,,,,,,,,,,,,,,,,,,,,,,,,,,,,,,,,,,,,,,,,,,,,,,,,,,,,117.2501,117.75,,,y-g,4.5,2.25,2.25,boundary,"[""y-g"",4.5]",No,,,,,,,,,,,,,,,,,,,,117.75,122.2508,,122.2508,123.4614,4.413309982,0.9619,6.0,0.0,6.0,0.0,1.0,,,,,,,,,,,,,0.8493959965625396,2.001077092177544e-19,1.2539802390781702,0.15523005892424244
31,,,A14W0AXTJ3R19V,1,2023-11-28_12h39.12.645,color_task,2023.2.2,Win32,240.3268445,,,,,,,,,,,,,,,,,,,,,,,,,,,,,,,,,,,,,,,,,,,,,,,,,,,,,,,,,,,,,,,123.4616,123.9588,,,b,0.5,0.5,0.0,continious,"[""b"",0.5]",No,,,,,,,,,,,,,,,,,,,,123.9588,124.4566,,124.4567,126.0272,0.477232925,1.3199,7.0,0.0,7.0,0.0,1.0,,,,,,,,,,,,,0.8493959965625396,2.001077092177544e-19,1.2539802390781702,0.15523005892424244
32,,,A14W0AXTJ3R19V,1,2023-11-28_12h39.12.645,color_task,2023.2.2,Win32,240.3268445,,,,,,,,,,,,,,,,,,,,,,,,,,,,,,,,,,,,,,,,,,,,,,,,,,,,,,,,,,,,,,,126.0274,126.5272,,,g-b,1.0,0.5,0.5,boundary,"[""g-b"",1]",No,,,,,,,,,,,,,,,,,,,,126.5272,127.5267,,127.5267,128.9771,0.980735552,1.2019,8.0,0.0,8.0,0.0,1.0,,,,,,,,,,,,,0.8493959965625396,2.001077092177544e-19,1.2539802390781702,0.15523005892424244
33,,,A14W0AXTJ3R19V,1,2023-11-28_12h39.12.645,color_task,2023.2.2,Win32,240.3268445,,,,,,,,,,,,,,,,,,,,,,,,,,,,,,,,,,,,,,,,,,,,,,,,,,,,,,,,,,,,,,,128.9773,129.4771,,,b,3.0,3.0,0.0,continious,"[""b"",3]",No,,,,,,,,,,,,,,,,,,,,129.4771,132.4781,,132.4782,133.8023,2.8721541160000004,1.0757,9.0,0.0,9.0,0.0,1.0,,,,,,,,,,,,,0.8493959965625396,2.001077092177544e-19,1.2539802390781702,0.15523005892424244
34,,,A14W0AXTJ3R19V,1,2023-11-28_12h39.12.645,color_task,2023.2.2,Win32,240.3268445,,,,,,,,,,,,,,,,,,,,,,,,,,,,,,,,,,,,,,,,,,,,,,,,,,,,,,,,,,,,,,,133.8025,134.3025,,,g-b,1.5,0.75,0.75,boundary,"[""g-b"",1.5]",No,,,,,,,,,,,,,,,,,,,,134.3025,135.8013,,135.8014,137.0472,1.260945709,0.9989,10.0,0.0,10.0,0.0,1.0,,,,,,,,,,,,,0.8493959965625396,2.001077092177544e-19,1.2539802390781702,0.15523005892424244
35,,,A14W0AXTJ3R19V,1,2023-11-28_12h39.12.645,color_task,2023.2.2,Win32,240.3268445,,,,,,,,,,,,,,,,,,,,,,,,,,,,,,,,,,,,,,,,,,,,,,,,,,,,,,,,,,,,,,,137.0474,137.5473,,,gc,2.5,2.5,0.0,catch,"[""gc"",2.5]",Yes,,,,,,,,,,,,,,,,,,,,137.5473,140.0478,space,140.0478,141.0854,1.799474606,0.7896,11.0,0.0,11.0,0.0,1.0,0.4124,,,,,,,,,,,,0.8493959965625396,2.001077092177544e-19,1.2539802390781702,0.15523005892424244
36,,,A14W0AXTJ3R19V,1,2023-11-28_12h39.12.645,color_task,2023.2.2,Win32,240.3268445,,,,,,,,,,,,,,,,,,,,,,,,,,,,,,,,,,,,,,,,,,,,,,,,,,,,,,,,,,,,,,,141.0855,141.5855,,,b-g,5.0,2.5,2.5,boundary,"[""b-g"",5]",No,,,,,,,,,,,,,,,,,,,,141.5856,146.5844,,146.5845,147.5303,4.238178634,0.6974,12.0,0.0,12.0,0.0,1.0,,,,,,,,,,,,,0.8493959965625396,2.001077092177544e-19,1.2539802390781702,0.15523005892424244
37,,,A14W0AXTJ3R19V,1,2023-11-28_12h39.12.645,color_task,2023.2.2,Win32,240.3268445,,,,,,,,,,,,,,,,,,,,,,,,,,,,,,,,,,,,,,,,,,,,,,,,,,,,,,,,,,,,,,,147.5304,148.0304,,,b,1.0,1.0,0.0,continious,"[""b"",1]",No,,,,,,,,,,,,,,,,,,,,148.0304,149.0306,,149.0306,150.4724,1.352889667,1.1911,13.0,0.0,13.0,0.0,1.0,,,,,,,,,,,,,0.8493959965625396,2.001077092177544e-19,1.2539802390781702,0.15523005892424244
38,,,A14W0AXTJ3R19V,1,2023-11-28_12h39.12.645,color_task,2023.2.2,Win32,240.3268445,,,,,,,,,,,,,,,,,,,,,,,,,,,,,,,,,,,,,,,,,,,,,,,,,,,,,,,,,,,,,,,150.4726,150.9726,,,y-g,4.0,2.0,2.0,boundary,"[""y-g"",4]",No,,,,,,,,,,,,,,,,,,,,150.9726,154.9713,,154.9713,156.0839,4.400175131,0.8619,14.0,0.0,14.0,0.0,1.0,,,,,,,,,,,,,0.8493959965625396,2.001077092177544e-19,1.2539802390781702,0.15523005892424244
39,,,A14W0AXTJ3R19V,1,2023-11-28_12h39.12.645,color_task,2023.2.2,Win32,240.3268445,,,,,,,,,,,,,,,,,,,,,,,,,,,,,,,,,,,,,,,,,,,,,,,,,,,,,,,,,,,,,,,156.084,156.582,,,y-g,0.5,0.25,0.25,boundary,"[""y-g"",0.5]",No,,,,,,,,,,,,,,,,,,,,156.582,157.0822,,157.0822,158.3283,1.269702277,0.9951,15.0,0.0,15.0,0.0,1.0,,,,,,,,,,,,,0.8493959965625396,2.001077092177544e-19,1.2539802390781702,0.15523005892424244
40,,,A14W0AXTJ3R19V,1,2023-11-28_12h39.12.645,color_task,2023.2.2,Win32,240.3268445,,,,,,,,,,,,,,,,,,,,,,,,,,,,,,,,,,,,,,,,,,,,,,,,,,,,,,,,,,,,,,,158.3285,158.8282,,,y-g,3.0,1.5,1.5,boundary,"[""y-g"",3]",No,,,,,,,,,,,,,,,,,,,,158.8282,161.8288,,161.8289,163.2552,2.438704028,1.1786,16.0,0.0,16.0,0.0,1.0,,,,,,,,,,,,,0.8493959965625396,2.001077092177544e-19,1.2539802390781702,0.15523005892424244
41,,,A14W0AXTJ3R19V,1,2023-11-28_12h39.12.645,color_task,2023.2.2,Win32,240.3268445,,,,,,,,,,,,,,,,,,,,,,,,,,,,,,,,,,,,,,,,,,,,,,,,,,,,,,,,,,,,,,,163.2556,163.7557,,,gc,2.0,2.0,0.0,catch,"[""gc"",2]",Yes,,,,,,,,,,,,,,,,,,,,163.7557,165.7593,,165.7594,166.9303,2.084063047,0.923,17.0,0.0,17.0,0.0,1.0,,,,,,,,,,,,,0.8493959965625396,2.001077092177544e-19,1.2539802390781702,0.15523005892424244
42,,,A14W0AXTJ3R19V,1,2023-11-28_12h39.12.645,color_task,2023.2.2,Win32,240.3268445,,,,,,,,,,,,,,,,,,,,,,,,,,,,,,,,,,,,,,,,,,,,,,,,,,,,,,,,,,,,,,,166.9304,167.4298,,,b-g,3.0,1.5,1.5,boundary,"[""b-g"",3]",No,,,,,,,,,,,,,,,,,,,,167.4298,170.4283,,170.4283,171.541,2.3117338,0.8644,18.0,0.0,18.0,0.0,1.0,,,,,,,,,,,,,0.8493959965625396,2.001077092177544e-19,1.2539802390781702,0.15523005892424244
43,,,A14W0AXTJ3R19V,1,2023-11-28_12h39.12.645,color_task,2023.2.2,Win32,240.3268445,,,,,,,,,,,,,,,,,,,,,,,,,,,,,,,,,,,,,,,,,,,,,,,,,,,,,,,,,,,,,,,171.5411,172.0411,,,y-g,1.5,0.75,0.75,boundary,"[""y-g"",1.5]",No,,,,,,,,,,,,,,,,,,,,172.0411,173.5414,,173.5415,174.7396,0.998248687,0.9473,19.0,0.0,19.0,0.0,1.0,,,,,,,,,,,,,0.8493959965625396,2.001077092177544e-19,1.2539802390781702,0.15523005892424244
44,,,A14W0AXTJ3R19V,1,2023-11-28_12h39.12.645,color_task,2023.2.2,Win32,240.3268445,,,,,,,,,,,,,,,,,,,,,,,,,,,,,,,,,,,,,,,,,,,,,,,,,,,,,,,,,,,,,,,174.7398,175.2395,,,y-g,2.5,1.25,1.25,boundary,"[""y-g"",2.5]",No,,,,,,,,,,,,,,,,,,,,175.2395,177.74,,177.7402,179.0925,2.894045534,1.1034,20.0,0.0,20.0,0.0,1.0,,,,,,,,,,,,,0.8493959965625396,2.001077092177544e-19,1.2539802390781702,0.15523005892424244
45,,,A14W0AXTJ3R19V,1,2023-11-28_12h39.12.645,color_task,2023.2.2,Win32,240.3268445,,,,,,,,,,,,,,,,,,,,,,,,,,,,,,,,,,,,,,,,,,,,,,,,,,,,,,,,,,,,,,,179.0928,179.5925,,,b-g,2.5,1.25,1.25,boundary,"[""b-g"",2.5]",No,,,,,,,,,,,,,,,,,,,,179.5926,182.091,,182.0911,182.9455,1.974605954,0.6054,21.0,0.0,21.0,0.0,1.0,,,,,,,,,,,,,0.8493959965625396,2.001077092177544e-19,1.2539802390781702,0.15523005892424244
46,,,A14W0AXTJ3R19V,1,2023-11-28_12h39.12.645,color_task,2023.2.2,Win32,240.3268445,,,,,,,,,,,,,,,,,,,,,,,,,,,,,,,,,,,,,,,,,,,,,,,,,,,,,,,,,,,,,,,182.9457,183.4458,,,b-g,2.0,1.0,1.0,boundary,"[""b-g"",2]",No,,,,,,,,,,,,,,,,,,,,183.4458,185.4433,,185.4434,186.469,1.983362522,0.775,22.0,0.0,22.0,0.0,1.0,,,,,,,,,,,,,0.8493959965625396,2.001077092177544e-19,1.2539802390781702,0.15523005892424244
47,,,A14W0AXTJ3R19V,1,2023-11-28_12h39.12.645,color_task,2023.2.2,Win32,240.3268445,,,,,,,,,,,,,,,,,,,,,,,,,,,,,,,,,,,,,,,,,,,,,,,,,,,,,,,,,,,,,,,186.4691,186.9691,,,g,4.5,4.5,0.0,continious,"[""g"",4.5]",No,,,,,,,,,,,,,,,,,,,,186.9691,191.4698,,191.47,192.6909,4.496497373,0.9722,23.0,0.0,23.0,0.0,1.0,,,,,,,,,,,,,0.8493959965625396,2.001077092177544e-19,1.2539802390781702,0.15523005892424244
48,,,A14W0AXTJ3R19V,1,2023-11-28_12h39.12.645,color_task,2023.2.2,Win32,240.3268445,,,,,,,,,,,,,,,,,,,,,,,,,,,,,,,,,,,,,,,,,,,,,,,,,,,,,,,,,,,,,,,192.6911,193.1911,,,g-b,5.0,2.5,2.5,boundary,"[""g-b"",5]",No,,,,,,,,,,,,,,,,,,,,193.1911,198.192,,198.1921,199.3588,4.925569177,0.9194,24.0,0.0,24.0,0.0,1.0,,,,,,,,,,,,,0.8493959965625396,2.001077092177544e-19,1.2539802390781702,0.15523005892424244
49,,,A14W0AXTJ3R19V,1,2023-11-28_12h39.12.645,color_task,2023.2.2,Win32,240.3268445,,,,,,,,,,,,,,,,,,,,,,,,,,,,,,,,,,,,,,,,,,,,,,,,,,,,,,,,,,,,,,,199.3589,199.8589,,,y,0.5,0.5,0.0,continious,"[""y"",0.5]",No,,,,,,,,,,,,,,,,,,,,199.859,200.3589,,200.3591,201.7883,0.595446585,1.1823,25.0,0.0,25.0,0.0,1.0,,,,,,,,,,,,,0.8493959965625396,2.001077092177544e-19,1.2539802390781702,0.15523005892424244
50,,,A14W0AXTJ3R19V,1,2023-11-28_12h39.12.645,color_task,2023.2.2,Win32,240.3268445,,,,,,,,,,,,,,,,,,,,,,,,,,,,,,,,,,,,,,,,,,,,,,,,,,,,,,,,,,,,,,,201.7885,202.2884,,,b-g,4.5,2.25,2.25,boundary,"[""b-g"",4.5]",No,,,,,,,,,,,,,,,,,,,,202.2884,206.7893,,206.7894,208.0749,4.719789842,1.0373,26.0,0.0,26.0,0.0,1.0,,,,,,,,,,,,,0.8493959965625396,2.001077092177544e-19,1.2539802390781702,0.15523005892424244
51,,,A14W0AXTJ3R19V,1,2023-11-28_12h39.12.645,color_task,2023.2.2,Win32,240.3268445,,,,,,,,,,,,,,,,,,,,,,,,,,,,,,,,,,,,,,,,,,,,,,,,,,,,,,,,,,,,,,,208.0751,208.5752,,,g-b,4.5,2.25,2.25,boundary,"[""g-b"",4.5]",No,,,,,,,,,,,,,,,,,,,,208.5752,213.0724,,213.0725,214.0932,3.064798599,0.7734,27.0,0.0,27.0,0.0,1.0,,,,,,,,,,,,,0.8493959965625396,2.001077092177544e-19,1.2539802390781702,0.15523005892424244
52,,,A14W0AXTJ3R19V,1,2023-11-28_12h39.12.645,color_task,2023.2.2,Win32,240.3268445,,,,,,,,,,,,,,,,,,,,,,,,,,,,,,,,,,,,,,,,,,,,,,,,,,,,,,,,,,,,,,,214.0935,214.5934,,,g,0.5,0.5,0.0,continious,"[""g"",0.5]",No,,,,,,,,,,,,,,,,,,,,214.5934,215.0935,,215.0937,216.8145,0.823117338,1.4731,28.0,0.0,28.0,0.0,1.0,,,,,,,,,,,,,0.8493959965625396,2.001077092177544e-19,1.2539802390781702,0.15523005892424244
53,,,A14W0AXTJ3R19V,1,2023-11-28_12h39.12.645,color_task,2023.2.2,Win32,240.3268445,,,,,,,,,,,,,,,,,,,,,,,,,,,,,,,,,,,,,,,,,,,,,,,,,,,,,,,,,,,,,,,216.8148,217.3146,,,bc,2.0,2.0,0.0,catch,"[""bc"",2]",Yes,,,,,,,,,,,,,,,,,,,,217.3148,219.315,space,219.3152,220.6026,1.58056042,1.0382,29.0,0.0,29.0,0.0,1.0,0.8754,,,,,,,,,,,,0.8493959965625396,2.001077092177544e-19,1.2539802390781702,0.15523005892424244
54,,,A14W0AXTJ3R19V,1,2023-11-28_12h39.12.645,color_task,2023.2.2,Win32,240.3268445,,,,,,,,,,,,,,,,,,,,,,,,,,,,,,,,,,,,,,,,,,,,,,,,,,,,,,,,,,,,,,,220.6028,221.1008,,,yc,2.5,2.5,0.0,catch,"[""yc"",2.5]",Yes,,,,,,,,,,,,,,,,,,,,221.1009,223.6014,space,223.6015,225.5277,1.230297723,1.6764,30.0,0.0,30.0,0.0,1.0,0.3674,,,,,,,,,,,,0.8493959965625396,2.001077092177544e-19,1.2539802390781702,0.15523005892424244
55,,,A14W0AXTJ3R19V,1,2023-11-28_12h39.12.645,color_task,2023.2.2,Win32,240.3268445,,,,,,,,,,,,,,,,,,,,,,,,,,,,,,,,,,,,,,,,,,,,,,,,,,,,,,,,,,,,,,,225.5278,226.0271,,,b,3.5,3.5,0.0,continious,"[""b"",3.5]",No,,,,,,,,,,,,,,,,,,,,226.0271,229.5253,,229.5255,230.2921,3.756567426,0.5186,31.0,0.0,31.0,0.0,1.0,,,,,,,,,,,,,0.8493959965625396,2.001077092177544e-19,1.2539802390781702,0.15523005892424244
56,,,A14W0AXTJ3R19V,1,2023-11-28_12h39.12.645,color_task,2023.2.2,Win32,240.3268445,,,,,,,,,,,,,,,,,,,,,,,,,,,,,,,,,,,,,,,,,,,,,,,,,,,,,,,,,,,,,,,230.2922,230.7922,,,b-g,3.5,1.75,1.75,boundary,"[""b-g"",3.5]",No,,,,,,,,,,,,,,,,,,,,230.7923,234.2926,,234.2927,235.2514,4.211908932,0.7115,32.0,0.0,32.0,0.0,1.0,,,,,,,,,,,,,0.8493959965625396,2.001077092177544e-19,1.2539802390781702,0.15523005892424244
57,,,A14W0AXTJ3R19V,1,2023-11-28_12h39.12.645,color_task,2023.2.2,Win32,240.3268445,,,,,,,,,,,,,,,,,,,,,,,,,,,,,,,,,,,,,,,,,,,,,,,,,,,,,,,,,,,,,,,235.2517,235.7494,,,b-g,1.5,0.75,0.75,boundary,"[""b-g"",1.5]",No,,,,,,,,,,,,,,,,,,,,235.7494,237.2496,,237.2497,238.0602,2.648861646,0.5601,33.0,0.0,33.0,0.0,1.0,,,,,,,,,,,,,0.8493959965625396,2.001077092177544e-19,1.2539802390781702,0.15523005892424244
58,,,A14W0AXTJ3R19V,1,2023-11-28_12h39.12.645,color_task,2023.2.2,Win32,240.3268445,,,,,,,,,,,,,,,,,,,,,,,,,,,,,,,,,,,,,,,,,,,,,,,,,,,,,,,,,,,,,,,238.0605,238.5603,,,g-b,2.0,1.0,1.0,boundary,"[""g-b"",2]",No,,,,,,,,,,,,,,,,,,,,238.5603,240.5607,,240.5607,241.34,2.587565674,0.5289,34.0,0.0,34.0,0.0,1.0,,,,,,,,,,,,,0.8493959965625396,2.001077092177544e-19,1.2539802390781702,0.15523005892424244
59,,,A14W0AXTJ3R19V,1,2023-11-28_12h39.12.645,color_task,2023.2.2,Win32,240.3268445,,,,,,,,,,,,,,,,,,,,,,,,,,,,,,,,,,,,,,,,,,,,,,,,,,,,,,,,,,,,,,,241.3402,241.84,,,y,2.0,2.0,0.0,continious,"[""y"",2]",No,,,,,,,,,,,,,,,,,,,,241.84,243.8415,,243.8416,244.8377,1.492994746,0.7452,35.0,0.0,35.0,0.0,1.0,,,,,,,,,,,,,0.8493959965625396,2.001077092177544e-19,1.2539802390781702,0.15523005892424244
60,,,A14W0AXTJ3R19V,1,2023-11-28_12h39.12.645,color_task,2023.2.2,Win32,240.3268445,,,,,,,,,,,,,,,,,,,,,,,,,,,,,,,,,,,,,,,,,,,,,,,,,,,,,,,,,,,,,,,244.8379,245.3378,,,g-b,3.5,1.75,1.75,boundary,"[""g-b"",3.5]",No,,,,,,,,,,,,,,,,,,,,245.3378,248.8372,,248.8373,249.829,3.883537653,0.7436,36.0,0.0,36.0,0.0,1.0,,,,,,,,,,,,,0.8493959965625396,2.001077092177544e-19,1.2539802390781702,0.15523005892424244
61,,,A14W0AXTJ3R19V,1,2023-11-28_12h39.12.645,color_task,2023.2.2,Win32,240.3268445,,,,,,,,,,,,,,,,,,,,,,,,,,,,,,,,,,,,,,,,,,,,,,,,,,,,,,,,,,,,,,,249.8292,250.329,,,g,3.0,3.0,0.0,continious,"[""g"",3]",No,,,,,,,,,,,,,,,,,,,,250.3291,253.3362,,253.3363,254.3757,3.358143608,0.7887,37.0,0.0,37.0,0.0,1.0,,,,,,,,,,,,,0.8493959965625396,2.001077092177544e-19,1.2539802390781702,0.15523005892424244
62,,,A14W0AXTJ3R19V,1,2023-11-28_12h39.12.645,color_task,2023.2.2,Win32,240.3268445,,,,,,,,,,,,,,,,,,,,,,,,,,,,,,,,,,,,,,,,,,,,,,,,,,,,,,,,,,,,,,,254.3759,254.8757,,,y,5.0,5.0,0.0,continious,"[""y"",5]",No,,,,,,,,,,,,,,,,,,,,254.8757,259.8746,,259.8747,260.8706,4.325744308,0.7481,38.0,0.0,38.0,0.0,1.0,,,,,,,,,,,,,0.8493959965625396,2.001077092177544e-19,1.2539802390781702,0.15523005892424244
63,,,A14W0AXTJ3R19V,1,2023-11-28_12h39.12.645,color_task,2023.2.2,Win32,240.3268445,,,,,,,,,,,,,,,,,,,,,,,,,,,,,,,,,,,,,,,,,,,,,,,,,,,,,,,,,,,,,,,260.8709,261.3707,,,g-b,2.5,1.25,1.25,boundary,"[""g-b"",2.5]",No,,,,,,,,,,,,,,,,,,,,261.3707,263.8701,,263.8702,264.639,3.340630473,0.5288,39.0,0.0,39.0,0.0,1.0,,,,,,,,,,,,,0.8493959965625396,2.001077092177544e-19,1.2539802390781702,0.15523005892424244
64,,,A14W0AXTJ3R19V,1,2023-11-28_12h39.12.645,color_task,2023.2.2,Win32,240.3268445,,,,,,,,,,,,,,,,,,,,,,,,,,,,,,,,,,,,,,,,,,,,,,,,,,,,,,,,,,,,,,,264.6393,265.1384,,,y-g,3.5,1.75,1.75,boundary,"[""y-g"",3.5]",No,,,,,,,,,,,,,,,,,,,,265.1385,268.6366,,268.6367,269.5075,2.9903677760000003,0.6216,40.0,0.0,40.0,0.0,1.0,,,,,,,,,,,,,0.8493959965625396,2.001077092177544e-19,1.2539802390781702,0.15523005892424244
65,,,A14W0AXTJ3R19V,1,2023-11-28_12h39.12.645,color_task,2023.2.2,Win32,240.3268445,,,,,,,,,,,,,,,,,,,,,,,,,,,,,,,,,,,,,,,,,,,,,,,,,,,,,,,,,,,,,,,269.5077,270.0056,,,b,1.5,1.5,0.0,continious,"[""b"",1.5]",No,,,,,,,,,,,,,,,,,,,,270.0056,271.5059,,271.5061,272.6393,2.088441331,0.8823,41.0,0.0,41.0,0.0,1.0,,,,,,,,,,,,,0.8493959965625396,2.001077092177544e-19,1.2539802390781702,0.15523005892424244
66,,,A14W0AXTJ3R19V,1,2023-11-28_12h39.12.645,color_task,2023.2.2,Win32,240.3268445,,,,,,,,,,,,,,,,,,,,,,,,,,,,,,,,,,,,,,,,,,,,,,,,,,,,,,,,,,,,,,,272.6395,273.1334,,,b,2.0,2.0,0.0,continious,"[""b"",2]",No,,,,,,,,,,,,,,,,,,,,273.1334,275.1403,,275.1404,276.2485,1.799474606,0.8577,42.0,0.0,42.0,0.0,1.0,,,,,,,,,,,,,0.8493959965625396,2.001077092177544e-19,1.2539802390781702,0.15523005892424244
67,,,A14W0AXTJ3R19V,1,2023-11-28_12h39.12.645,color_task,2023.2.2,Win32,240.3268445,,,,,,,,,,,,,,,,,,,,,,,,,,,,,,,,,,,,,,,,,,,,,,,,,,,,,,,,,,,,,,,276.2486,276.7486,,,b-g,0.5,0.25,0.25,boundary,"[""b-g"",0.5]",No,,,,,,,,,,,,,,,,,,,,276.7486,277.2487,,277.2488,278.5281,0.6173380039999999,1.03,43.0,0.0,43.0,0.0,1.0,,,,,,,,,,,,,0.8493959965625396,2.001077092177544e-19,1.2539802390781702,0.15523005892424244
68,,,A14W0AXTJ3R19V,1,2023-11-28_12h39.12.645,color_task,2023.2.2,Win32,240.3268445,,,,,,,,,,,,,,,,,,,,,,,,,,,,,,,,,,,,,,,,,,,,,,,,,,,,,,,,,,,,,,,278.5283,279.0282,,,b,5.0,5.0,0.0,continious,"[""b"",5]",No,,,,,,,,,,,,,,,,,,,,279.0282,284.0282,,284.0284,284.9819,3.607705779,0.7059,44.0,0.0,44.0,0.0,1.0,,,,,,,,,,,,,0.8493959965625396,2.001077092177544e-19,1.2539802390781702,0.15523005892424244
69,,,A14W0AXTJ3R19V,1,2023-11-28_12h39.12.645,color_task,2023.2.2,Win32,240.3268445,,,,,,,,,,,,,,,,,,,,,,,,,,,,,,,,,,,,,,,,,,,,,,,,,,,,,,,,,,,,,,,284.9821,285.4814,,,g,5.0,5.0,0.0,continious,"[""g"",5]",No,,,,,,,,,,,,,,,,,,,,285.4814,290.4802,,290.4802,291.3177,4.719789842,0.5870000000000001,45.0,0.0,45.0,0.0,1.0,,,,,,,,,,,,,0.8493959965625396,2.001077092177544e-19,1.2539802390781702,0.15523005892424244
70,,,A14W0AXTJ3R19V,1,2023-11-28_12h39.12.645,color_task,2023.2.2,Win32,240.3268445,,,,,,,,,,,,,,,,,,,,,,,,,,,,,,,,,,,,,,,,,,,,,,,,,,,,,,,,,,,,,,,291.3179,291.8178,,,y,1.5,1.5,0.0,continious,"[""y"",1.5]",No,,,,,,,,,,,,,,,,,,,,291.8178,293.3183,,293.3183,294.9212,0.512259194,1.3473,46.0,0.0,46.0,0.0,1.0,,,,,,,,,,,,,0.8493959965625396,2.001077092177544e-19,1.2539802390781702,0.15523005892424244
71,,,A14W0AXTJ3R19V,1,2023-11-28_12h39.12.645,color_task,2023.2.2,Win32,240.3268445,,,,,,,,,,,,,,,,,,,,,,,,,,,,,,,,,,,,,,,,,,,,,,,,,,,,,,,,,,,,,,,294.9214,295.4206,,,g,1.5,1.5,0.0,continious,"[""g"",1.5]",No,,,,,,,,,,,,,,,,,,,,295.4206,296.9209,,296.921,298.5337,1.133975482,1.3642,47.0,0.0,47.0,0.0,1.0,,,,,,,,,,,,,0.8493959965625396,2.001077092177544e-19,1.2539802390781702,0.15523005892424244
72,,,A14W0AXTJ3R19V,1,2023-11-28_12h39.12.645,color_task,2023.2.2,Win32,240.3268445,,,,,,,,,,,,,,,,,,,,,,,,,,,,,,,,,,,,,,,,,,,,,,,,,,,,,,,,,,,,,,,298.534,299.0338,,,yc,3.0,3.0,0.0,catch,"[""yc"",3]",Yes,,,,,,,,,,,,,,,,,,,,299.0338,302.0342,space,302.0343,303.5798,1.646234676,1.2956,48.0,0.0,48.0,0.0,1.0,0.9515,,,,,,,,,,,,0.8493959965625396,2.001077092177544e-19,1.2539802390781702,0.15523005892424244
73,,,A14W0AXTJ3R19V,1,2023-11-28_12h39.12.645,color_task,2023.2.2,Win32,240.3268445,,,,,,,,,,,,,,,,,,,,,,,,,,,,,,,,,,,,,,,,,,,,,,,,,,,,,,,,,,,,,,,303.5801,304.0792,,,b-g,4.0,2.0,2.0,boundary,"[""b-g"",4]",No,,,,,,,,,,,,,,,,,,,,304.0792,308.0771,,308.0772,309.0877,4.448336252,0.7619,49.0,0.0,49.0,0.0,1.0,,,,,,,,,,,,,0.8493959965625396,2.001077092177544e-19,1.2539802390781702,0.15523005892424244
74,,,A14W0AXTJ3R19V,1,2023-11-28_12h39.12.645,color_task,2023.2.2,Win32,240.3268445,,,,,,,,,,,,,,,,,,,,,,,,,,,,,,,,,,,,,,,,,,,,,,,,,,,,,,,,,,,,,,,309.0879,309.5879,,,b,2.5,2.5,0.0,continious,"[""b"",2.5]",No,,,,,,,,,,,,,,,,,,,,309.5879,312.0883,,312.0883,312.8218,2.162872154,0.4846,50.0,0.0,50.0,0.0,1.0,,,,,,,,,,,,,0.8493959965625396,2.001077092177544e-19,1.2539802390781702,0.15523005892424244
75,,,A14W0AXTJ3R19V,1,2023-11-28_12h39.12.645,color_task,2023.2.2,Win32,240.3268445,,,,,,,,,,,,,,,,,,,,,,,,,,,,,,,,,,,,,,,,,,,,,,,,,,,,,,,,,,,,,,,312.8219,313.3198,,,bc,3.0,3.0,0.0,catch,"[""bc"",3]",Yes,,,,,,,,,,,,,,,,,,,,313.3198,316.3182,space,316.3183,317.7601,1.843257443,1.1931,51.0,0.0,51.0,0.0,1.0,0.978,,,,,,,,,,,,0.8493959965625396,2.001077092177544e-19,1.2539802390781702,0.15523005892424244
76,,,A14W0AXTJ3R19V,1,2023-11-28_12h39.12.645,color_task,2023.2.2,Win32,240.3268445,,,,,,,,,,,,,,,,,,,,,,,,,,,,,,,,,,,,,,,,,,,,,,,,,,,,,,,,,,,,,,,317.7603,318.2601,,,g,1.0,1.0,0.0,continious,"[""g"",1]",No,,,,,,,,,,,,,,,,,,,,318.2601,319.2604,,319.2604,320.3272,1.6243432569999998,0.8197,52.0,0.0,52.0,0.0,1.0,,,,,,,,,,,,,0.8493959965625396,2.001077092177544e-19,1.2539802390781702,0.15523005892424244
77,,,A14W0AXTJ3R19V,1,2023-11-28_12h39.12.645,color_task,2023.2.2,Win32,240.3268445,,,,,,,,,,,,,,,,,,,,,,,,,,,,,,,,,,,,,,,,,,,,,,,,,,,,,,,,,,,,,,,320.3273,320.8272,,,y,2.5,2.5,0.0,continious,"[""y"",2.5]",No,,,,,,,,,,,,,,,,,,,,320.8273,323.3257,,323.3259,324.1175,3.26619965,0.5444,53.0,0.0,53.0,0.0,1.0,,,,,,,,,,,,,0.8493959965625396,2.001077092177544e-19,1.2539802390781702,0.15523005892424244
78,,,A14W0AXTJ3R19V,1,2023-11-28_12h39.12.645,color_task,2023.2.2,Win32,240.3268445,,,,,,,,,,,,,,,,,,,,,,,,,,,,,,,,,,,,,,,,,,,,,,,,,,,,,,,,,,,,,,,324.1177,324.6193,,,g,4.0,4.0,0.0,continious,"[""g"",4]",No,,,,,,,,,,,,,,,,,,,,324.6193,328.6183,,328.6183,329.6934,4.089316988,0.8274,54.0,0.0,54.0,0.0,1.0,,,,,,,,,,,,,0.8493959965625396,2.001077092177544e-19,1.2539802390781702,0.15523005892424244
79,,,A14W0AXTJ3R19V,1,2023-11-28_12h39.12.645,color_task,2023.2.2,Win32,240.3268445,,,,,,,,,,,,,,,,,,,,,,,,,,,,,,,,,,,,,,,,,,,,,,,,,,,,,,,,,,,,,,,329.6935,330.1935,,,y,4.0,4.0,0.0,continious,"[""y"",4]",No,,,,,,,,,,,,,,,,,,,,330.1935,334.1922,,334.1923,335.0944,2.7626970230000003,0.6513,55.0,0.0,55.0,0.0,1.0,,,,,,,,,,,,,0.8493959965625396,2.001077092177544e-19,1.2539802390781702,0.15523005892424244
80,,,A14W0AXTJ3R19V,1,2023-11-28_12h39.12.645,color_task,2023.2.2,Win32,240.3268445,,,,,,,,,,,,,,,,,,,,,,,,,,,,,,,,,,,,,,,,,,,,,,,,,,,,,,,,,,,,,,,335.0946,335.5924,,,y,4.5,4.5,0.0,continious,"[""y"",4.5]",No,,,,,,,,,,,,,,,,,,,,335.5924,340.0911,,340.0912,340.8954,1.725043783,0.5537,56.0,0.0,56.0,0.0,1.0,,,,,,,,,,,,,0.8493959965625396,2.001077092177544e-19,1.2539802390781702,0.15523005892424244
81,,,A14W0AXTJ3R19V,1,2023-11-28_12h39.12.645,color_task,2023.2.2,Win32,240.3268445,,,,,,,,,,,,,,,,,,,,,,,,,,,,,,,,,,,,,,,,,,,,,,,,,,,,,,,,,,,,,,,340.8956,341.3955,,,g,3.5,3.5,0.0,continious,"[""g"",3.5]",No,,,,,,,,,,,,,,,,,,,,341.3955,344.8959,,344.8959,345.774,3.340630473,0.6284,57.0,0.0,57.0,0.0,1.0,,,,,,,,,,,,,0.8493959965625396,2.001077092177544e-19,1.2539802390781702,0.15523005892424244
82,,,A14W0AXTJ3R19V,1,2023-11-28_12h39.12.645,color_task,2023.2.2,Win32,240.3268445,,,,,,,,,,,,,,,,,,,,,,,,,,,,,,,,,,,,,,,,,,,,,,,,,,,,,,,,,,,,,,,345.7742,346.2714,,,g-b,3.0,1.5,1.5,boundary,"[""g-b"",3]",No,,,,,,,,,,,,,,,,,,,,346.2714,349.2719,,349.272,350.2636,2.885288967,0.7436,58.0,0.0,58.0,0.0,1.0,,,,,,,,,,,,,0.8493959965625396,2.001077092177544e-19,1.2539802390781702,0.15523005892424244
83,,,A14W0AXTJ3R19V,1,2023-11-28_12h39.12.645,color_task,2023.2.2,Win32,240.3268445,,,,,,,,,,,,,,,,,,,,,,,,,,,,,,,,,,,,,,,,,,,,,,,,,,,,,,,,,,,,,,,350.2639,350.7637,,,g,2.5,2.5,0.0,continious,"[""g"",2.5]",No,,,,,,,,,,,,,,,,,,,,350.7637,353.2627,,353.2629,354.3457,1.856392294,0.8358,59.0,0.0,59.0,0.0,1.0,,,,,,,,,,,,,0.8493959965625396,2.001077092177544e-19,1.2539802390781702,0.15523005892424244
84,,,A14W0AXTJ3R19V,1,2023-11-28_12h39.12.645,color_task,2023.2.2,Win32,240.3268445,,,,,,,,,,,,,,,,,,,,,,,,,,,,,,,,,,,,,,,,,,,,,,,,,,,,,,,,,,,,,,,354.346,354.8457,,,b-g,1.0,0.5,0.5,boundary,"[""b-g"",1]",No,,,,,,,,,,,,,,,,,,,,354.8457,355.8439,,355.844,356.8024,1.370402802,0.7104,60.0,0.0,60.0,0.0,1.0,,,,,,,,,,,,,0.8493959965625396,2.001077092177544e-19,1.2539802390781702,0.15523005892424244
85,,,A14W0AXTJ3R19V,1,2023-11-28_12h39.12.645,color_task,2023.2.2,Win32,240.3268445,,,,,,,,,,,,,,,,,,,,,,,,,,,,,,,,,,,,,,,,,,,,,,,,,,,,,,,,,,,,,,,356.8026,357.3026,,,g,2.0,2.0,0.0,continious,"[""g"",2]",No,,,,,,,,,,,,,,,,,,,,357.3026,359.3009,,359.301,360.351,0.8800350259999999,0.7994,61.0,0.0,61.0,0.0,1.0,,,,,,,,,,,,,0.8493959965625396,2.001077092177544e-19,1.2539802390781702,0.15523005892424244
86,,,A14W0AXTJ3R19V,1,2023-11-28_12h39.12.645,color_task,2023.2.2,Win32,240.3268445,,,,,,,,,,,,,,,,,,,,,,,,,,,,,,,,,,,,,,,,,,,,,,,,,,,,,,,,,,,,,,,360.3512,360.8512,,,y,3.5,3.5,0.0,continious,"[""y"",3.5]",No,,,,,,,,,,,,,,,,,,,,360.8512,364.346,,364.3461,365.207,3.489492119,0.6124,62.0,0.0,62.0,0.0,1.0,,,,,,,,,,,,,0.8493959965625396,2.001077092177544e-19,1.2539802390781702,0.15523005892424244
87,,,A14W0AXTJ3R19V,1,2023-11-28_12h39.12.645,color_task,2023.2.2,Win32,240.3268445,,,,,,,,,,,,,,,,,,,,,,,,,,,,,,,,,,,,,,,,,,,,,,,,,,,,,,,,,,,,,,,365.2072,365.7067,,,y-g,1.0,0.5,0.5,boundary,"[""y-g"",1]",No,,,,,,,,,,,,,,,,,,,,365.7067,366.7043,,366.7045,367.8962,3.436952715,0.9435,63.0,0.0,63.0,0.0,1.0,,,,,,,,,,,,,0.8493959965625396,2.001077092177544e-19,1.2539802390781702,0.15523005892424244
88,,,A14W0AXTJ3R19V,1,2023-11-28_12h39.12.645,color_task,2023.2.2,Win32,240.3268445,,,,,,,,,,,,,,,,,,,,,,,,,,,,,,,,,,,,,,,,,,,,,,,,,,,,,,,,,,,,,,,367.8964,368.3963,,,y-g,5.0,2.5,2.5,boundary,"[""y-g"",5]",No,,,,,,,,,,,,,,,,,,,,368.3963,373.3973,,373.3975,374.2307,4.084938704,0.5841,64.0,0.0,64.0,0.0,1.0,,,,,,,,,,,,,0.8493959965625396,2.001077092177544e-19,1.2539802390781702,0.15523005892424244
89,,,A14W0AXTJ3R19V,1,2023-11-28_12h39.12.645,color_task,2023.2.2,Win32,240.3268445,,,,,,,,,,,,,,,,,,,,,,,,,,,,,,,,,,,,,,,,,,,,,,,,,,,,,,,,,,,,,,,374.2309,374.7308,,,g-b,0.5,0.25,0.25,boundary,"[""g-b"",0.5]",No,,,,,,,,,,,,,,,,,,,,374.7308,375.2309,,375.231,376.8375,0.595446585,1.3577,65.0,0.0,65.0,0.0,1.0,,,,,,,,,,,,,0.8493959965625396,2.001077092177544e-19,1.2539802390781702,0.15523005892424244
24,,,A183WYXN12P2TJ,1,2023-11-28_12h58.49.361,color_task,2023.2.2,Win32,59.86231667,,,,,,,,,,,,,,,,,,,,,,,,,,,,,,,,,,,,,,,,,,,,,,,,,,,,,,,,,,,,,,,85.0158,85.5098,,,b,3.0,3.0,0.0,continious,"[""b"",3]",No,,,,,,,,,,,,,,,,,,,,85.5101,88.5114,,88.5115,89.7625,2.231481481,1.0131,0.0,0.0,0.0,0.0,1.0,,,,,,,,,,,,,0.9334313064280736,3.414015315188465e-30,1.6844085908891118,0.6298400673181818
25,,,A183WYXN12P2TJ,1,2023-11-28_12h58.49.361,color_task,2023.2.2,Win32,59.86231667,,,,,,,,,,,,,,,,,,,,,,,,,,,,,,,,,,,,,,,,,,,,,,,,,,,,,,,,,,,,,,,89.7627,90.2628,,,g,2.5,2.5,0.0,continious,"[""g"",2.5]",No,,,,,,,,,,,,,,,,,,,,90.2629,92.7668,,92.7669,94.4851,2.351851852,1.47,1.0,0.0,1.0,0.0,1.0,,,,,,,,,,,,,0.9334313064280736,3.414015315188465e-30,1.6844085908891118,0.6298400673181818
26,,,A183WYXN12P2TJ,1,2023-11-28_12h58.49.361,color_task,2023.2.2,Win32,59.86231667,,,,,,,,,,,,,,,,,,,,,,,,,,,,,,,,,,,,,,,,,,,,,,,,,,,,,,,,,,,,,,,94.4852,94.9842,,,g-y,3.5,1.75,1.75,boundary,"[""g-y"",3.5]",No,,,,,,,,,,,,,,,,,,,,94.9842,98.4892,,98.4892,99.8056,2.800925926,1.0691,2.0,0.0,2.0,0.0,1.0,,,,,,,,,,,,,0.9334313064280736,3.414015315188465e-30,1.6844085908891118,0.6298400673181818
27,,,A183WYXN12P2TJ,1,2023-11-28_12h58.49.361,color_task,2023.2.2,Win32,59.86231667,,,,,,,,,,,,,,,,,,,,,,,,,,,,,,,,,,,,,,,,,,,,,,,,,,,,,,,,,,,,,,,99.8058,100.3075,,,y,3.0,3.0,0.0,continious,"[""y"",3]",No,,,,,,,,,,,,,,,,,,,,100.3076,103.3104,,103.3104,104.8273,1.953703704,1.2764,3.0,0.0,3.0,0.0,1.0,,,,,,,,,,,,,0.9334313064280736,3.414015315188465e-30,1.6844085908891118,0.6298400673181818
28,,,A183WYXN12P2TJ,1,2023-11-28_12h58.49.361,color_task,2023.2.2,Win32,59.86231667,,,,,,,,,,,,,,,,,,,,,,,,,,,,,,,,,,,,,,,,,,,,,,,,,,,,,,,,,,,,,,,104.8275,105.3291,,,g-y,2.0,1.0,1.0,boundary,"[""g-y"",2]",No,,,,,,,,,,,,,,,,,,,,105.3291,107.3298,,107.3298,109.1996,2.208333333,1.6215,4.0,0.0,4.0,0.0,1.0,,,,,,,,,,,,,0.9334313064280736,3.414015315188465e-30,1.6844085908891118,0.6298400673181818
29,,,A183WYXN12P2TJ,1,2023-11-28_12h58.49.361,color_task,2023.2.2,Win32,59.86231667,,,,,,,,,,,,,,,,,,,,,,,,,,,,,,,,,,,,,,,,,,,,,,,,,,,,,,,,,,,,,,,109.1998,109.7003,,,g,3.5,3.5,0.0,continious,"[""g"",3.5]",No,,,,,,,,,,,,,,,,,,,,109.7003,113.2036,,113.2037,114.4367,2.87962963,0.9905,5.0,0.0,5.0,0.0,1.0,,,,,,,,,,,,,0.9334313064280736,3.414015315188465e-30,1.6844085908891118,0.6298400673181818
30,,,A183WYXN12P2TJ,1,2023-11-28_12h58.49.361,color_task,2023.2.2,Win32,59.86231667,,,,,,,,,,,,,,,,,,,,,,,,,,,,,,,,,,,,,,,,,,,,,,,,,,,,,,,,,,,,,,,114.4369,114.9372,,,b,1.5,1.5,0.0,continious,"[""b"",1.5]",No,,,,,,,,,,,,,,,,,,,,114.9372,116.4387,,116.4387,117.8233,1.310185185,1.1357,6.0,0.0,6.0,0.0,1.0,,,,,,,,,,,,,0.9334313064280736,3.414015315188465e-30,1.6844085908891118,0.6298400673181818
31,,,A183WYXN12P2TJ,1,2023-11-28_12h58.49.361,color_task,2023.2.2,Win32,59.86231667,,,,,,,,,,,,,,,,,,,,,,,,,,,,,,,,,,,,,,,,,,,,,,,,,,,,,,,,,,,,,,,117.8234,118.3239,,,g,5.0,5.0,0.0,continious,"[""g"",5]",No,,,,,,,,,,,,,,,,,,,,118.3239,123.3134,,123.3135,125.0639,3.773148148,1.505,7.0,0.0,7.0,0.0,1.0,,,,,,,,,,,,,0.9334313064280736,3.414015315188465e-30,1.6844085908891118,0.6298400673181818
32,,,A183WYXN12P2TJ,1,2023-11-28_12h58.49.361,color_task,2023.2.2,Win32,59.86231667,,,,,,,,,,,,,,,,,,,,,,,,,,,,,,,,,,,,,,,,,,,,,,,,,,,,,,,,,,,,,,,125.0641,125.5643,,,y-b,2.0,1.0,1.0,boundary,"[""y-b"",2]",No,,,,,,,,,,,,,,,,,,,,125.5644,127.5664,,127.5665,129.2513,1.949074074,1.4432,8.0,0.0,8.0,0.0,1.0,,,,,,,,,,,,,0.9334313064280736,3.414015315188465e-30,1.6844085908891118,0.6298400673181818
33,,,A183WYXN12P2TJ,1,2023-11-28_12h58.49.361,color_task,2023.2.2,Win32,59.86231667,,,,,,,,,,,,,,,,,,,,,,,,,,,,,,,,,,,,,,,,,,,,,,,,,,,,,,,,,,,,,,,129.2516,129.7518,,,y,2.5,2.5,0.0,continious,"[""y"",2.5]",No,,,,,,,,,,,,,,,,,,,,129.7518,132.2542,,132.2543,133.839,2.180555556,1.3343,9.0,0.0,9.0,0.0,1.0,,,,,,,,,,,,,0.9334313064280736,3.414015315188465e-30,1.6844085908891118,0.6298400673181818
34,,,A183WYXN12P2TJ,1,2023-11-28_12h58.49.361,color_task,2023.2.2,Win32,59.86231667,,,,,,,,,,,,,,,,,,,,,,,,,,,,,,,,,,,,,,,,,,,,,,,,,,,,,,,,,,,,,,,133.8392,134.3395,,,g-y,1.0,0.5,0.5,boundary,"[""g-y"",1]",No,,,,,,,,,,,,,,,,,,,,134.3395,135.3415,,135.3416,136.74200000000002,1.12962963,1.147,10.0,0.0,10.0,0.0,1.0,,,,,,,,,,,,,0.9334313064280736,3.414015315188465e-30,1.6844085908891118,0.6298400673181818
35,,,A183WYXN12P2TJ,1,2023-11-28_12h58.49.361,color_task,2023.2.2,Win32,59.86231667,,,,,,,,,,,,,,,,,,,,,,,,,,,,,,,,,,,,,,,,,,,,,,,,,,,,,,,,,,,,,,,136.7422,137.2425,,,y-g,4.5,2.25,2.25,boundary,"[""y-g"",4.5]",No,,,,,,,,,,,,,,,,,,,,137.2426,141.7302,,141.7303,143.0481,2.560185185,1.0646,11.0,0.0,11.0,0.0,1.0,,,,,,,,,,,,,0.9334313064280736,3.414015315188465e-30,1.6844085908891118,0.6298400673181818
36,,,A183WYXN12P2TJ,1,2023-11-28_12h58.49.361,color_task,2023.2.2,Win32,59.86231667,,,,,,,,,,,,,,,,,,,,,,,,,,,,,,,,,,,,,,,,,,,,,,,,,,,,,,,,,,,,,,,143.0483,143.5486,,,b,1.0,1.0,0.0,continious,"[""b"",1]",No,,,,,,,,,,,,,,,,,,,,143.5486,144.5497,,144.5498,146.4515,1.050925926,1.6575,12.0,0.0,12.0,0.0,1.0,,,,,,,,,,,,,0.9334313064280736,3.414015315188465e-30,1.6844085908891118,0.6298400673181818
37,,,A183WYXN12P2TJ,1,2023-11-28_12h58.49.361,color_task,2023.2.2,Win32,59.86231667,,,,,,,,,,,,,,,,,,,,,,,,,,,,,,,,,,,,,,,,,,,,,,,,,,,,,,,,,,,,,,,146.4516,146.9519,,,y-b,0.5,0.25,0.25,boundary,"[""y-b"",0.5]",No,,,,,,,,,,,,,,,,,,,,146.952,147.4526,,147.4527,149.3892,0.50462963,1.6967,13.0,0.0,13.0,0.0,1.0,,,,,,,,,,,,,0.9334313064280736,3.414015315188465e-30,1.6844085908891118,0.6298400673181818
38,,,A183WYXN12P2TJ,1,2023-11-28_12h58.49.361,color_task,2023.2.2,Win32,59.86231667,,,,,,,,,,,,,,,,,,,,,,,,,,,,,,,,,,,,,,,,,,,,,,,,,,,,,,,,,,,,,,,149.3893,149.8882,,,bc,1.5,1.5,0.0,catch,"[""bc"",1.5]",Yes,,,,,,,,,,,,,,,,,,,,149.8883,151.3899,space,151.3899,153.1747,1.083333333,1.5423,14.0,0.0,14.0,0.0,1.0,0.6045,,,,,,,,,,,,0.9334313064280736,3.414015315188465e-30,1.6844085908891118,0.6298400673181818
39,,,A183WYXN12P2TJ,1,2023-11-28_12h58.49.361,color_task,2023.2.2,Win32,59.86231667,,,,,,,,,,,,,,,,,,,,,,,,,,,,,,,,,,,,,,,,,,,,,,,,,,,,,,,,,,,,,,,153.175,153.6752,,,y-g,2.5,1.25,1.25,boundary,"[""y-g"",2.5]",No,,,,,,,,,,,,,,,,,,,,153.6752,156.1778,,156.1779,157.4624,2.236111111,1.0404,15.0,0.0,15.0,0.0,1.0,,,,,,,,,,,,,0.9334313064280736,3.414015315188465e-30,1.6844085908891118,0.6298400673181818
40,,,A183WYXN12P2TJ,1,2023-11-28_12h58.49.361,color_task,2023.2.2,Win32,59.86231667,,,,,,,,,,,,,,,,,,,,,,,,,,,,,,,,,,,,,,,,,,,,,,,,,,,,,,,,,,,,,,,157.4625,157.9627,,,y,3.5,3.5,0.0,continious,"[""y"",3.5]",No,,,,,,,,,,,,,,,,,,,,157.9627,161.4672,,161.4673,162.8343,2.75462963,1.1265,16.0,0.0,16.0,0.0,1.0,,,,,,,,,,,,,0.9334313064280736,3.414015315188465e-30,1.6844085908891118,0.6298400673181818
41,,,A183WYXN12P2TJ,1,2023-11-28_12h58.49.361,color_task,2023.2.2,Win32,59.86231667,,,,,,,,,,,,,,,,,,,,,,,,,,,,,,,,,,,,,,,,,,,,,,,,,,,,,,,,,,,,,,,162.8345,163.3347,,,b,3.5,3.5,0.0,continious,"[""b"",3.5]",No,,,,,,,,,,,,,,,,,,,,163.3347,166.8232,,166.8232,168.22299999999996,2.550925926,1.1494,17.0,0.0,17.0,0.0,1.0,,,,,,,,,,,,,0.9334313064280736,3.414015315188465e-30,1.6844085908891118,0.6298400673181818
42,,,A183WYXN12P2TJ,1,2023-11-28_12h58.49.361,color_task,2023.2.2,Win32,59.86231667,,,,,,,,,,,,,,,,,,,,,,,,,,,,,,,,,,,,,,,,,,,,,,,,,,,,,,,,,,,,,,,168.2231,168.7233,,,g,1.0,1.0,0.0,continious,"[""g"",1]",No,,,,,,,,,,,,,,,,,,,,168.7234,169.7245,,169.7245,171.27599999999995,0.921296296,1.3116,18.0,0.0,18.0,0.0,1.0,,,,,,,,,,,,,0.9334313064280736,3.414015315188465e-30,1.6844085908891118,0.6298400673181818
43,,,A183WYXN12P2TJ,1,2023-11-28_12h58.49.361,color_task,2023.2.2,Win32,59.86231667,,,,,,,,,,,,,,,,,,,,,,,,,,,,,,,,,,,,,,,,,,,,,,,,,,,,,,,,,,,,,,,171.2762,171.7764,,,y-g,3.5,1.75,1.75,boundary,"[""y-g"",3.5]",No,,,,,,,,,,,,,,,,,,,,171.7764,175.2644,,175.2646,176.5477,2.37037037,1.0391,19.0,0.0,19.0,0.0,1.0,,,,,,,,,,,,,0.9334313064280736,3.414015315188465e-30,1.6844085908891118,0.6298400673181818
44,,,A183WYXN12P2TJ,1,2023-11-28_12h58.49.361,color_task,2023.2.2,Win32,59.86231667,,,,,,,,,,,,,,,,,,,,,,,,,,,,,,,,,,,,,,,,,,,,,,,,,,,,,,,,,,,,,,,176.5479,177.0484,,,bc,2.5,2.5,0.0,catch,"[""bc"",2.5]",Yes,,,,,,,,,,,,,,,,,,,,177.0484,179.5507,space,179.5509,181.386,1.851851852,1.5822,20.0,0.0,20.0,0.0,1.0,0.5843,,,,,,,,,,,,0.9334313064280736,3.414015315188465e-30,1.6844085908891118,0.6298400673181818
45,,,A183WYXN12P2TJ,1,2023-11-28_12h58.49.361,color_task,2023.2.2,Win32,59.86231667,,,,,,,,,,,,,,,,,,,,,,,,,,,,,,,,,,,,,,,,,,,,,,,,,,,,,,,,,,,,,,,181.3861,181.8864,,,b,2.5,2.5,0.0,continious,"[""b"",2.5]",No,,,,,,,,,,,,,,,,,,,,181.8864,184.3897,,184.3897,185.807,1.439814815,1.1706,21.0,0.0,21.0,0.0,1.0,,,,,,,,,,,,,0.9334313064280736,3.414015315188465e-30,1.6844085908891118,0.6298400673181818
46,,,A183WYXN12P2TJ,1,2023-11-28_12h58.49.361,color_task,2023.2.2,Win32,59.86231667,,,,,,,,,,,,,,,,,,,,,,,,,,,,,,,,,,,,,,,,,,,,,,,,,,,,,,,,,,,,,,,185.8073,186.3074,,,b,4.5,4.5,0.0,continious,"[""b"",4.5]",No,,,,,,,,,,,,,,,,,,,,186.3074,190.7955,,190.7956,192.0631,2.662037037,1.027,22.0,0.0,22.0,0.0,1.0,,,,,,,,,,,,,0.9334313064280736,3.414015315188465e-30,1.6844085908891118,0.6298400673181818
47,,,A183WYXN12P2TJ,1,2023-11-28_12h58.49.361,color_task,2023.2.2,Win32,59.86231667,,,,,,,,,,,,,,,,,,,,,,,,,,,,,,,,,,,,,,,,,,,,,,,,,,,,,,,,,,,,,,,192.0633,192.5635,,,g,0.5,0.5,0.0,continious,"[""g"",0.5]",No,,,,,,,,,,,,,,,,,,,,192.5635,193.064,,193.064,194.5989,0.467592593,1.2967,23.0,0.0,23.0,0.0,1.0,,,,,,,,,,,,,0.9334313064280736,3.414015315188465e-30,1.6844085908891118,0.6298400673181818
48,,,A183WYXN12P2TJ,1,2023-11-28_12h58.49.361,color_task,2023.2.2,Win32,59.86231667,,,,,,,,,,,,,,,,,,,,,,,,,,,,,,,,,,,,,,,,,,,,,,,,,,,,,,,,,,,,,,,194.5991,195.0994,,,y-g,5.0,2.5,2.5,boundary,"[""y-g"",5]",No,,,,,,,,,,,,,,,,,,,,195.0994,200.0877,,200.0877,201.5558,3.0879629630000003,1.2202,24.0,0.0,24.0,0.0,1.0,,,,,,,,,,,,,0.9334313064280736,3.414015315188465e-30,1.6844085908891118,0.6298400673181818
49,,,A183WYXN12P2TJ,1,2023-11-28_12h58.49.361,color_task,2023.2.2,Win32,59.86231667,,,,,,,,,,,,,,,,,,,,,,,,,,,,,,,,,,,,,,,,,,,,,,,,,,,,,,,,,,,,,,,201.5559,202.0562,,,b,2.0,2.0,0.0,continious,"[""b"",2]",No,,,,,,,,,,,,,,,,,,,,202.0562,204.0582,,204.0583,205.6932,1.347222222,1.3938,25.0,0.0,25.0,0.0,1.0,,,,,,,,,,,,,0.9334313064280736,3.414015315188465e-30,1.6844085908891118,0.6298400673181818
50,,,A183WYXN12P2TJ,1,2023-11-28_12h58.49.361,color_task,2023.2.2,Win32,59.86231667,,,,,,,,,,,,,,,,,,,,,,,,,,,,,,,,,,,,,,,,,,,,,,,,,,,,,,,,,,,,,,,205.6933,206.1937,,,y-b,4.5,2.25,2.25,boundary,"[""y-b"",4.5]",No,,,,,,,,,,,,,,,,,,,,206.1938,210.6829,,210.683,212.066,2.722222222,1.1374,26.0,0.0,26.0,0.0,1.0,,,,,,,,,,,,,0.9334313064280736,3.414015315188465e-30,1.6844085908891118,0.6298400673181818
51,,,A183WYXN12P2TJ,1,2023-11-28_12h58.49.361,color_task,2023.2.2,Win32,59.86231667,,,,,,,,,,,,,,,,,,,,,,,,,,,,,,,,,,,,,,,,,,,,,,,,,,,,,,,,,,,,,,,212.0663,212.5666,,,g,4.0,4.0,0.0,continious,"[""g"",4]",No,,,,,,,,,,,,,,,,,,,,212.5666,216.5706,,216.5707,217.6716,3.5555555560000003,0.8611,27.0,0.0,27.0,0.0,1.0,,,,,,,,,,,,,0.9334313064280736,3.414015315188465e-30,1.6844085908891118,0.6298400673181818
52,,,A183WYXN12P2TJ,1,2023-11-28_12h58.49.361,color_task,2023.2.2,Win32,59.86231667,,,,,,,,,,,,,,,,,,,,,,,,,,,,,,,,,,,,,,,,,,,,,,,,,,,,,,,,,,,,,,,217.6718,218.1721,,,g-y,5.0,2.5,2.5,boundary,"[""g-y"",5]",No,,,,,,,,,,,,,,,,,,,,218.1721,223.1606,,223.1607,224.7452,3.819444444,1.3347,28.0,0.0,28.0,0.0,1.0,,,,,,,,,,,,,0.9334313064280736,3.414015315188465e-30,1.6844085908891118,0.6298400673181818
53,,,A183WYXN12P2TJ,1,2023-11-28_12h58.49.361,color_task,2023.2.2,Win32,59.86231667,,,,,,,,,,,,,,,,,,,,,,,,,,,,,,,,,,,,,,,,,,,,,,,,,,,,,,,,,,,,,,,224.7454,225.2457,,,g,2.0,2.0,0.0,continious,"[""g"",2]",No,,,,,,,,,,,,,,,,,,,,225.2457,227.249,,227.2491,228.9494,1.962962963,1.4478,29.0,0.0,29.0,0.0,1.0,,,,,,,,,,,,,0.9334313064280736,3.414015315188465e-30,1.6844085908891118,0.6298400673181818
54,,,A183WYXN12P2TJ,1,2023-11-28_12h58.49.361,color_task,2023.2.2,Win32,59.86231667,,,,,,,,,,,,,,,,,,,,,,,,,,,,,,,,,,,,,,,,,,,,,,,,,,,,,,,,,,,,,,,228.9497,229.4501,,,y-b,1.5,0.75,0.75,boundary,"[""y-b"",1.5]",No,,,,,,,,,,,,,,,,,,,,229.4501,230.9527,,230.9528,232.7531,1.462962963,1.5551,30.0,0.0,30.0,0.0,1.0,,,,,,,,,,,,,0.9334313064280736,3.414015315188465e-30,1.6844085908891118,0.6298400673181818
55,,,A183WYXN12P2TJ,1,2023-11-28_12h58.49.361,color_task,2023.2.2,Win32,59.86231667,,,,,,,,,,,,,,,,,,,,,,,,,,,,,,,,,,,,,,,,,,,,,,,,,,,,,,,,,,,,,,,232.7532,233.2537,,,b,0.5,0.5,0.0,continious,"[""b"",0.5]",No,,,,,,,,,,,,,,,,,,,,233.2537,233.7541,,233.7542,235.4906,0.33796296299999995,1.4861,31.0,0.0,31.0,0.0,1.0,,,,,,,,,,,,,0.9334313064280736,3.414015315188465e-30,1.6844085908891118,0.6298400673181818
56,,,A183WYXN12P2TJ,1,2023-11-28_12h58.49.361,color_task,2023.2.2,Win32,59.86231667,,,,,,,,,,,,,,,,,,,,,,,,,,,,,,,,,,,,,,,,,,,,,,,,,,,,,,,,,,,,,,,235.4907,235.9897,,,g-y,1.5,0.75,0.75,boundary,"[""g-y"",1.5]",No,,,,,,,,,,,,,,,,,,,,235.9898,237.4921,,237.4922,239.126,1.458333333,1.3799,32.0,0.0,32.0,0.0,1.0,,,,,,,,,,,,,0.9334313064280736,3.414015315188465e-30,1.6844085908891118,0.6298400673181818
57,,,A183WYXN12P2TJ,1,2023-11-28_12h58.49.361,color_task,2023.2.2,Win32,59.86231667,,,,,,,,,,,,,,,,,,,,,,,,,,,,,,,,,,,,,,,,,,,,,,,,,,,,,,,,,,,,,,,239.1262,239.6265,,,yc,2.0,2.0,0.0,catch,"[""yc"",2]",Yes,,,,,,,,,,,,,,,,,,,,239.6266,241.6286,space,241.6286,243.2635,1.662037037,1.3934,33.0,0.0,33.0,0.0,1.0,0.7844,,,,,,,,,,,,0.9334313064280736,3.414015315188465e-30,1.6844085908891118,0.6298400673181818
58,,,A183WYXN12P2TJ,1,2023-11-28_12h58.49.361,color_task,2023.2.2,Win32,59.86231667,,,,,,,,,,,,,,,,,,,,,,,,,,,,,,,,,,,,,,,,,,,,,,,,,,,,,,,,,,,,,,,243.2637,243.7639,,,y-g,1.5,0.75,0.75,boundary,"[""y-g"",1.5]",No,,,,,,,,,,,,,,,,,,,,243.7639,245.2656,,245.2657,246.6335,1.541666667,1.1188,34.0,0.0,34.0,0.0,1.0,,,,,,,,,,,,,0.9334313064280736,3.414015315188465e-30,1.6844085908891118,0.6298400673181818
59,,,A183WYXN12P2TJ,1,2023-11-28_12h58.49.361,color_task,2023.2.2,Win32,59.86231667,,,,,,,,,,,,,,,,,,,,,,,,,,,,,,,,,,,,,,,,,,,,,,,,,,,,,,,,,,,,,,,246.6336,247.134,,,y-b,3.5,1.75,1.75,boundary,"[""y-b"",3.5]",No,,,,,,,,,,,,,,,,,,,,247.134,250.6375,,250.6376,252.1223,1.962962963,1.2319,35.0,0.0,35.0,0.0,1.0,,,,,,,,,,,,,0.9334313064280736,3.414015315188465e-30,1.6844085908891118,0.6298400673181818
60,,,A183WYXN12P2TJ,1,2023-11-28_12h58.49.361,color_task,2023.2.2,Win32,59.86231667,,,,,,,,,,,,,,,,,,,,,,,,,,,,,,,,,,,,,,,,,,,,,,,,,,,,,,,,,,,,,,,252.1225,252.6227,,,b,5.0,5.0,0.0,continious,"[""b"",5]",No,,,,,,,,,,,,,,,,,,,,252.6228,257.612,,257.6121,258.7621,3.3055555560000003,0.9026,36.0,0.0,36.0,0.0,1.0,,,,,,,,,,,,,0.9334313064280736,3.414015315188465e-30,1.6844085908891118,0.6298400673181818
61,,,A183WYXN12P2TJ,1,2023-11-28_12h58.49.361,color_task,2023.2.2,Win32,59.86231667,,,,,,,,,,,,,,,,,,,,,,,,,,,,,,,,,,,,,,,,,,,,,,,,,,,,,,,,,,,,,,,258.7624,259.2626,,,gc,1.5,1.5,0.0,catch,"[""gc"",1.5]",Yes,,,,,,,,,,,,,,,,,,,,259.2627,260.7641,space,260.7643,262.3171,1.175925926,1.3118,37.0,0.0,37.0,0.0,1.0,0.5786,,,,,,,,,,,,0.9334313064280736,3.414015315188465e-30,1.6844085908891118,0.6298400673181818
62,,,A183WYXN12P2TJ,1,2023-11-28_12h58.49.361,color_task,2023.2.2,Win32,59.86231667,,,,,,,,,,,,,,,,,,,,,,,,,,,,,,,,,,,,,,,,,,,,,,,,,,,,,,,,,,,,,,,262.3173,262.8161,,,y-g,0.5,0.25,0.25,boundary,"[""y-g"",0.5]",No,,,,,,,,,,,,,,,,,,,,262.8161,263.3165,,263.3166,265.0865,0.532407407,1.5228,38.0,0.0,38.0,0.0,1.0,,,,,,,,,,,,,0.9334313064280736,3.414015315188465e-30,1.6844085908891118,0.6298400673181818
63,,,A183WYXN12P2TJ,1,2023-11-28_12h58.49.361,color_task,2023.2.2,Win32,59.86231667,,,,,,,,,,,,,,,,,,,,,,,,,,,,,,,,,,,,,,,,,,,,,,,,,,,,,,,,,,,,,,,265.0868,265.5869,,,y,4.0,4.0,0.0,continious,"[""y"",4]",No,,,,,,,,,,,,,,,,,,,,265.587,269.5895,,269.5896,271.3412,2.217592593,1.5067,39.0,0.0,39.0,0.0,1.0,,,,,,,,,,,,,0.9334313064280736,3.414015315188465e-30,1.6844085908891118,0.6298400673181818
64,,,A183WYXN12P2TJ,1,2023-11-28_12h58.49.361,color_task,2023.2.2,Win32,59.86231667,,,,,,,,,,,,,,,,,,,,,,,,,,,,,,,,,,,,,,,,,,,,,,,,,,,,,,,,,,,,,,,271.3413,271.8417,,,y,4.5,4.5,0.0,continious,"[""y"",4.5]",No,,,,,,,,,,,,,,,,,,,,271.8418,276.3308,,276.3309,277.8324,2.8564814810000003,1.2624,40.0,0.0,40.0,0.0,1.0,,,,,,,,,,,,,0.9334313064280736,3.414015315188465e-30,1.6844085908891118,0.6298400673181818
65,,,A183WYXN12P2TJ,1,2023-11-28_12h58.49.361,color_task,2023.2.2,Win32,59.86231667,,,,,,,,,,,,,,,,,,,,,,,,,,,,,,,,,,,,,,,,,,,,,,,,,,,,,,,,,,,,,,,277.8325,278.3313,,,y,0.5,0.5,0.0,continious,"[""y"",0.5]",No,,,,,,,,,,,,,,,,,,,,278.3313,278.8319,,278.8321,280.2849,0.5787037039999999,1.2059,41.0,0.0,41.0,0.0,1.0,,,,,,,,,,,,,0.9334313064280736,3.414015315188465e-30,1.6844085908891118,0.6298400673181818
66,,,A183WYXN12P2TJ,1,2023-11-28_12h58.49.361,color_task,2023.2.2,Win32,59.86231667,,,,,,,,,,,,,,,,,,,,,,,,,,,,,,,,,,,,,,,,,,,,,,,,,,,,,,,,,,,,,,,280.2851,280.7836,,,y,1.5,1.5,0.0,continious,"[""y"",1.5]",No,,,,,,,,,,,,,,,,,,,,280.7837,282.2852,,282.2853,283.7048,1.287037037,1.1768,42.0,0.0,42.0,0.0,1.0,,,,,,,,,,,,,0.9334313064280736,3.414015315188465e-30,1.6844085908891118,0.6298400673181818
67,,,A183WYXN12P2TJ,1,2023-11-28_12h58.49.361,color_task,2023.2.2,Win32,59.86231667,,,,,,,,,,,,,,,,,,,,,,,,,,,,,,,,,,,,,,,,,,,,,,,,,,,,,,,,,,,,,,,283.7049,284.2039,,,y,5.0,5.0,0.0,continious,"[""y"",5]",No,,,,,,,,,,,,,,,,,,,,284.2039,289.1921,,289.1922,290.6949,3.925925926,1.2637,43.0,0.0,43.0,0.0,1.0,,,,,,,,,,,,,0.9334313064280736,3.414015315188465e-30,1.6844085908891118,0.6298400673181818
68,,,A183WYXN12P2TJ,1,2023-11-28_12h58.49.361,color_task,2023.2.2,Win32,59.86231667,,,,,,,,,,,,,,,,,,,,,,,,,,,,,,,,,,,,,,,,,,,,,,,,,,,,,,,,,,,,,,,290.695,291.1939,,,y-g,1.0,0.5,0.5,boundary,"[""y-g"",1]",No,,,,,,,,,,,,,,,,,,,,291.194,292.1951,,292.1952,293.7982,0.935185185,1.3548,44.0,0.0,44.0,0.0,1.0,,,,,,,,,,,,,0.9334313064280736,3.414015315188465e-30,1.6844085908891118,0.6298400673181818
69,,,A183WYXN12P2TJ,1,2023-11-28_12h58.49.361,color_task,2023.2.2,Win32,59.86231667,,,,,,,,,,,,,,,,,,,,,,,,,,,,,,,,,,,,,,,,,,,,,,,,,,,,,,,,,,,,,,,293.7983,294.2971,,,y-b,1.0,0.5,0.5,boundary,"[""y-b"",1]",No,,,,,,,,,,,,,,,,,,,,294.2971,295.2996,,295.2998,296.9499,0.828703704,1.4075,45.0,0.0,45.0,0.0,1.0,,,,,,,,,,,,,0.9334313064280736,3.414015315188465e-30,1.6844085908891118,0.6298400673181818
70,,,A183WYXN12P2TJ,1,2023-11-28_12h58.49.361,color_task,2023.2.2,Win32,59.86231667,,,,,,,,,,,,,,,,,,,,,,,,,,,,,,,,,,,,,,,,,,,,,,,,,,,,,,,,,,,,,,,296.9501,297.4502,,,g,3.0,3.0,0.0,continious,"[""g"",3]",No,,,,,,,,,,,,,,,,,,,,297.4502,300.4546,,300.4546,302.1548,2.171296296,1.4604,46.0,0.0,46.0,0.0,1.0,,,,,,,,,,,,,0.9334313064280736,3.414015315188465e-30,1.6844085908891118,0.6298400673181818
71,,,A183WYXN12P2TJ,1,2023-11-28_12h58.49.361,color_task,2023.2.2,Win32,59.86231667,,,,,,,,,,,,,,,,,,,,,,,,,,,,,,,,,,,,,,,,,,,,,,,,,,,,,,,,,,,,,,,302.155,302.6553,,,y,2.0,2.0,0.0,continious,"[""y"",2]",No,,,,,,,,,,,,,,,,,,,,302.6553,304.6572,,304.6573,306.7101,1.884259259,1.8028,47.0,0.0,47.0,0.0,1.0,,,,,,,,,,,,,0.9334313064280736,3.414015315188465e-30,1.6844085908891118,0.6298400673181818
72,,,A183WYXN12P2TJ,1,2023-11-28_12h58.49.361,color_task,2023.2.2,Win32,59.86231667,,,,,,,,,,,,,,,,,,,,,,,,,,,,,,,,,,,,,,,,,,,,,,,,,,,,,,,,,,,,,,,306.7103,307.2098,,,gc,2.0,2.0,0.0,catch,"[""gc"",2]",Yes,,,,,,,,,,,,,,,,,,,,307.2098,309.2117,space,309.2118,310.8147,2.013888889,1.3562,48.0,0.0,48.0,0.0,1.0,0.6155,,,,,,,,,,,,0.9334313064280736,3.414015315188465e-30,1.6844085908891118,0.6298400673181818
73,,,A183WYXN12P2TJ,1,2023-11-28_12h58.49.361,color_task,2023.2.2,Win32,59.86231667,,,,,,,,,,,,,,,,,,,,,,,,,,,,,,,,,,,,,,,,,,,,,,,,,,,,,,,,,,,,,,,310.8149,311.3141,,,g-y,4.0,2.0,2.0,boundary,"[""g-y"",4]",No,,,,,,,,,,,,,,,,,,,,311.3141,315.3179,,315.318,316.9027,2.893518519,1.3367,49.0,0.0,49.0,0.0,1.0,,,,,,,,,,,,,0.9334313064280736,3.414015315188465e-30,1.6844085908891118,0.6298400673181818
74,,,A183WYXN12P2TJ,1,2023-11-28_12h58.49.361,color_task,2023.2.2,Win32,59.86231667,,,,,,,,,,,,,,,,,,,,,,,,,,,,,,,,,,,,,,,,,,,,,,,,,,,,,,,,,,,,,,,316.9028,317.4031,,,y-g,2.0,1.0,1.0,boundary,"[""y-g"",2]",No,,,,,,,,,,,,,,,,,,,,317.4031,319.4051,,319.4053,320.9399,1.856481481,1.2867,50.0,0.0,50.0,0.0,1.0,,,,,,,,,,,,,0.9334313064280736,3.414015315188465e-30,1.6844085908891118,0.6298400673181818
75,,,A183WYXN12P2TJ,1,2023-11-28_12h58.49.361,color_task,2023.2.2,Win32,59.86231667,,,,,,,,,,,,,,,,,,,,,,,,,,,,,,,,,,,,,,,,,,,,,,,,,,,,,,,,,,,,,,,320.9401,321.4404,,,y-b,5.0,2.5,2.5,boundary,"[""y-b"",5]",No,,,,,,,,,,,,,,,,,,,,321.4404,326.4287,,326.4288,327.6966,3.99537037,1.0282,51.0,0.0,51.0,0.0,1.0,,,,,,,,,,,,,0.9334313064280736,3.414015315188465e-30,1.6844085908891118,0.6298400673181818
76,,,A183WYXN12P2TJ,1,2023-11-28_12h58.49.361,color_task,2023.2.2,Win32,59.86231667,,,,,,,,,,,,,,,,,,,,,,,,,,,,,,,,,,,,,,,,,,,,,,,,,,,,,,,,,,,,,,,327.6968,328.1971,,,y-b,2.5,1.25,1.25,boundary,"[""y-b"",2.5]",No,,,,,,,,,,,,,,,,,,,,328.1971,330.6997,,330.6998,332.0842,2.513888889,1.131,52.0,0.0,52.0,0.0,1.0,,,,,,,,,,,,,0.9334313064280736,3.414015315188465e-30,1.6844085908891118,0.6298400673181818
77,,,A183WYXN12P2TJ,1,2023-11-28_12h58.49.361,color_task,2023.2.2,Win32,59.86231667,,,,,,,,,,,,,,,,,,,,,,,,,,,,,,,,,,,,,,,,,,,,,,,,,,,,,,,,,,,,,,,332.0844,332.5848,,,y,1.0,1.0,0.0,continious,"[""y"",1]",No,,,,,,,,,,,,,,,,,,,,332.5848,333.5858,,333.5859,335.1874,0.87962963,1.3589,53.0,0.0,53.0,0.0,1.0,,,,,,,,,,,,,0.9334313064280736,3.414015315188465e-30,1.6844085908891118,0.6298400673181818
78,,,A183WYXN12P2TJ,1,2023-11-28_12h58.49.361,color_task,2023.2.2,Win32,59.86231667,,,,,,,,,,,,,,,,,,,,,,,,,,,,,,,,,,,,,,,,,,,,,,,,,,,,,,,,,,,,,,,335.1875,335.6879,,,g,1.5,1.5,0.0,continious,"[""g"",1.5]",No,,,,,,,,,,,,,,,,,,,,335.6879,337.1892,,337.1894,338.8577,1.75,1.4295,54.0,0.0,54.0,0.0,1.0,,,,,,,,,,,,,0.9334313064280736,3.414015315188465e-30,1.6844085908891118,0.6298400673181818
79,,,A183WYXN12P2TJ,1,2023-11-28_12h58.49.361,color_task,2023.2.2,Win32,59.86231667,,,,,,,,,,,,,,,,,,,,,,,,,,,,,,,,,,,,,,,,,,,,,,,,,,,,,,,,,,,,,,,338.8579,339.3582,,,yc,2.5,2.5,0.0,catch,"[""yc"",2.5]",Yes,,,,,,,,,,,,,,,,,,,,339.3582,341.8606,space,341.8608,343.3119,2.75,1.2024,55.0,0.0,55.0,0.0,1.0,0.7671,,,,,,,,,,,,0.9334313064280736,3.414015315188465e-30,1.6844085908891118,0.6298400673181818
80,,,A183WYXN12P2TJ,1,2023-11-28_12h58.49.361,color_task,2023.2.2,Win32,59.86231667,,,,,,,,,,,,,,,,,,,,,,,,,,,,,,,,,,,,,,,,,,,,,,,,,,,,,,,,,,,,,,,343.3122,343.8139,,,y-b,3.0,1.5,1.5,boundary,"[""y-b"",3]",No,,,,,,,,,,,,,,,,,,,,343.8139,346.8154,,346.8155,348.1335,2.203703704,1.0643,56.0,0.0,56.0,0.0,1.0,,,,,,,,,,,,,0.9334313064280736,3.414015315188465e-30,1.6844085908891118,0.6298400673181818
81,,,A183WYXN12P2TJ,1,2023-11-28_12h58.49.361,color_task,2023.2.2,Win32,59.86231667,,,,,,,,,,,,,,,,,,,,,,,,,,,,,,,,,,,,,,,,,,,,,,,,,,,,,,,,,,,,,,,348.1336,348.6338,,,b,4.0,4.0,0.0,continious,"[""b"",4]",No,,,,,,,,,,,,,,,,,,,,348.6339,352.6379,,352.6379,353.839,2.509259259,0.9555,57.0,0.0,57.0,0.0,1.0,,,,,,,,,,,,,0.9334313064280736,3.414015315188465e-30,1.6844085908891118,0.6298400673181818
82,,,A183WYXN12P2TJ,1,2023-11-28_12h58.49.361,color_task,2023.2.2,Win32,59.86231667,,,,,,,,,,,,,,,,,,,,,,,,,,,,,,,,,,,,,,,,,,,,,,,,,,,,,,,,,,,,,,,353.8392,354.3395,,,g-y,4.5,2.25,2.25,boundary,"[""g-y"",4.5]",No,,,,,,,,,,,,,,,,,,,,354.3395,358.8274,,358.8275,360.1786,2.699074074,1.1022,58.0,0.0,58.0,0.0,1.0,,,,,,,,,,,,,0.9334313064280736,3.414015315188465e-30,1.6844085908891118,0.6298400673181818
83,,,A183WYXN12P2TJ,1,2023-11-28_12h58.49.361,color_task,2023.2.2,Win32,59.86231667,,,,,,,,,,,,,,,,,,,,,,,,,,,,,,,,,,,,,,,,,,,,,,,,,,,,,,,,,,,,,,,360.1788,360.679,,,g-y,0.5,0.25,0.25,boundary,"[""g-y"",0.5]",No,,,,,,,,,,,,,,,,,,,,360.679,361.1796,,361.1797,362.7477,0.625,1.3193,59.0,0.0,59.0,0.0,1.0,,,,,,,,,,,,,0.9334313064280736,3.414015315188465e-30,1.6844085908891118,0.6298400673181818
84,,,A183WYXN12P2TJ,1,2023-11-28_12h58.49.361,color_task,2023.2.2,Win32,59.86231667,,,,,,,,,,,,,,,,,,,,,,,,,,,,,,,,,,,,,,,,,,,,,,,,,,,,,,,,,,,,,,,362.7479,363.2483,,,g-y,3.0,1.5,1.5,boundary,"[""g-y"",3]",No,,,,,,,,,,,,,,,,,,,,363.2484,366.2361,,366.2362,367.7695,1.550925926,1.2843,60.0,0.0,60.0,0.0,1.0,,,,,,,,,,,,,0.9334313064280736,3.414015315188465e-30,1.6844085908891118,0.6298400673181818
85,,,A183WYXN12P2TJ,1,2023-11-28_12h58.49.361,color_task,2023.2.2,Win32,59.86231667,,,,,,,,,,,,,,,,,,,,,,,,,,,,,,,,,,,,,,,,,,,,,,,,,,,,,,,,,,,,,,,367.7697,368.2701,,,g,4.5,4.5,0.0,continious,"[""g"",4.5]",No,,,,,,,,,,,,,,,,,,,,368.2702,372.7743,,372.7744,374.0255,3.013888889,1.0079,61.0,0.0,61.0,0.0,1.0,,,,,,,,,,,,,0.9334313064280736,3.414015315188465e-30,1.6844085908891118,0.6298400673181818
86,,,A183WYXN12P2TJ,1,2023-11-28_12h58.49.361,color_task,2023.2.2,Win32,59.86231667,,,,,,,,,,,,,,,,,,,,,,,,,,,,,,,,,,,,,,,,,,,,,,,,,,,,,,,,,,,,,,,374.0257,374.5261,,,g-y,2.5,1.25,1.25,boundary,"[""g-y"",2.5]",No,,,,,,,,,,,,,,,,,,,,374.5261,377.0286,,377.0287,378.4132,2.041666667,1.1436,62.0,0.0,62.0,0.0,1.0,,,,,,,,,,,,,0.9334313064280736,3.414015315188465e-30,1.6844085908891118,0.6298400673181818
87,,,A183WYXN12P2TJ,1,2023-11-28_12h58.49.361,color_task,2023.2.2,Win32,59.86231667,,,,,,,,,,,,,,,,,,,,,,,,,,,,,,,,,,,,,,,,,,,,,,,,,,,,,,,,,,,,,,,378.4133,378.9136,,,y-b,4.0,2.0,2.0,boundary,"[""y-b"",4]",No,,,,,,,,,,,,,,,,,,,,378.9136,382.9026,,382.9027,384.6694,2.9212962960000004,1.5193,63.0,0.0,63.0,0.0,1.0,,,,,,,,,,,,,0.9334313064280736,3.414015315188465e-30,1.6844085908891118,0.6298400673181818
88,,,A183WYXN12P2TJ,1,2023-11-28_12h58.49.361,color_task,2023.2.2,Win32,59.86231667,,,,,,,,,,,,,,,,,,,,,,,,,,,,,,,,,,,,,,,,,,,,,,,,,,,,,,,,,,,,,,,384.6696,385.17,,,y-g,4.0,2.0,2.0,boundary,"[""y-g"",4]",No,,,,,,,,,,,,,,,,,,,,385.17,389.174,,389.1742,391.3593,2.777777778,1.9434,64.0,0.0,64.0,0.0,1.0,,,,,,,,,,,,,0.9334313064280736,3.414015315188465e-30,1.6844085908891118,0.6298400673181818
89,,,A183WYXN12P2TJ,1,2023-11-28_12h58.49.361,color_task,2023.2.2,Win32,59.86231667,,,,,,,,,,,,,,,,,,,,,,,,,,,,,,,,,,,,,,,,,,,,,,,,,,,,,,,,,,,,,,,391.3594,391.8599,,,y-g,3.0,1.5,1.5,boundary,"[""y-g"",3]",No,,,,,,,,,,,,,,,,,,,,391.8599,394.8629,,394.86300000000006,396.2807,2.592592593,1.1768,65.0,0.0,65.0,0.0,1.0,,,,,,,,,,,,,0.9334313064280736,3.414015315188465e-30,1.6844085908891118,0.6298400673181818
24,,,A1P6OXEJ86HQRM,1,2023-11-28_12h44.30.833,color_task,2023.2.2,Win32,58.29544129999999,,,,,,,,,,,,,,,,,,,,,,,,,,,,,,,,,,,,,,,,,,,,,,,,,,,,,,,,,,,,,,,137.197,137.6799,,,yc,2.0,2.0,0.0,catch,"[""yc"",2]",Yes,,,,,,,,,,,,,,,,,,,,137.6804,139.6812,space,139.6815,142.3318,1.035586845,2.404,0.0,0.0,0.0,0.0,1.0,0.6367,,,,,,,,,,,,0.921615568994328,5.298179186833758e-28,1.5996481149338804,1.013428452333333
25,,,A1P6OXEJ86HQRM,1,2023-11-28_12h44.30.833,color_task,2023.2.2,Win32,58.29544129999999,,,,,,,,,,,,,,,,,,,,,,,,,,,,,,,,,,,,,,,,,,,,,,,,,,,,,,,,,,,,,,,142.3324,142.8317,,,y,0.5,0.5,0.0,continious,"[""y"",0.5]",No,,,,,,,,,,,,,,,,,,,,142.8318,143.3322,,143.3324,146.0834,0.257961053,2.5033,1.0,0.0,1.0,0.0,1.0,,,,,,,,,,,,,0.921615568994328,5.298179186833758e-28,1.5996481149338804,1.013428452333333
26,,,A1P6OXEJ86HQRM,1,2023-11-28_12h44.30.833,color_task,2023.2.2,Win32,58.29544129999999,,,,,,,,,,,,,,,,,,,,,,,,,,,,,,,,,,,,,,,,,,,,,,,,,,,,,,,,,,,,,,,146.0839,146.5833,,,y,1.0,1.0,0.0,continious,"[""y"",1]",No,,,,,,,,,,,,,,,,,,,,146.5834,147.5868,,147.5871,150.80200000000005,0.433852431,2.9631,2.0,0.0,2.0,0.0,1.0,,,,,,,,,,,,,0.921615568994328,5.298179186833758e-28,1.5996481149338804,1.013428452333333
27,,,A1P6OXEJ86HQRM,1,2023-11-28_12h44.30.833,color_task,2023.2.2,Win32,58.29544129999999,,,,,,,,,,,,,,,,,,,,,,,,,,,,,,,,,,,,,,,,,,,,,,,,,,,,,,,,,,,,,,,150.8023,151.30200000000005,,,b-y,0.5,0.25,0.25,boundary,"[""b-y"",0.5]",No,,,,,,,,,,,,,,,,,,,,151.30200000000005,151.805,,151.8053,155.22,0.188530117,3.1766,3.0,0.0,3.0,0.0,1.0,,,,,,,,,,,,,0.921615568994328,5.298179186833758e-28,1.5996481149338804,1.013428452333333
28,,,A1P6OXEJ86HQRM,1,2023-11-28_12h44.30.833,color_task,2023.2.2,Win32,58.29544129999999,,,,,,,,,,,,,,,,,,,,,,,,,,,,,,,,,,,,,,,,,,,,,,,,,,,,,,,,,,,,,,,155.2204,155.7204,,,b-g,1.5,0.75,0.75,boundary,"[""b-g"",1.5]",No,,,,,,,,,,,,,,,,,,,,155.7204,157.2239,,157.2241,160.1717,1.017072014,2.7004,4.0,0.0,4.0,0.0,1.0,,,,,,,,,,,,,0.921615568994328,5.298179186833758e-28,1.5996481149338804,1.013428452333333
29,,,A1P6OXEJ86HQRM,1,2023-11-28_12h44.30.833,color_task,2023.2.2,Win32,58.29544129999999,,,,,,,,,,,,,,,,,,,,,,,,,,,,,,,,,,,,,,,,,,,,,,,,,,,,,,,,,,,,,,,160.172,160.672,,,g-y,3.0,1.5,1.5,boundary,"[""g-y"",3]",No,,,,,,,,,,,,,,,,,,,,160.6721,163.6764,,163.6766,167.0083,2.252941956,3.0872,5.0,0.0,5.0,0.0,1.0,,,,,,,,,,,,,0.921615568994328,5.298179186833758e-28,1.5996481149338804,1.013428452333333
30,,,A1P6OXEJ86HQRM,1,2023-11-28_12h44.30.833,color_task,2023.2.2,Win32,58.29544129999999,,,,,,,,,,,,,,,,,,,,,,,,,,,,,,,,,,,,,,,,,,,,,,,,,,,,,,,,,,,,,,,167.0088,167.5086,,,b-g,0.5,0.25,0.25,boundary,"[""b-g"",0.5]",No,,,,,,,,,,,,,,,,,,,,167.5086,168.0087,,168.0089,170.8427,0.304248292,2.5818,6.0,0.0,6.0,0.0,1.0,,,,,,,,,,,,,0.921615568994328,5.298179186833758e-28,1.5996481149338804,1.013428452333333
31,,,A1P6OXEJ86HQRM,1,2023-11-28_12h44.30.833,color_task,2023.2.2,Win32,58.29544129999999,,,,,,,,,,,,,,,,,,,,,,,,,,,,,,,,,,,,,,,,,,,,,,,,,,,,,,,,,,,,,,,170.8433,171.3441,,,g,5.0,5.0,0.0,continious,"[""g"",5]",No,,,,,,,,,,,,,,,,,,,,171.3441,176.3448,,176.3453,179.2467,4.002600226,2.662,7.0,0.0,7.0,0.0,1.0,,,,,,,,,,,,,0.921615568994328,5.298179186833758e-28,1.5996481149338804,1.013428452333333
32,,,A1P6OXEJ86HQRM,1,2023-11-28_12h44.30.833,color_task,2023.2.2,Win32,58.29544129999999,,,,,,,,,,,,,,,,,,,,,,,,,,,,,,,,,,,,,,,,,,,,,,,,,,,,,,,,,,,,,,,179.2472,179.7467,,,b,1.0,1.0,0.0,continious,"[""b"",1]",No,,,,,,,,,,,,,,,,,,,,179.7467,180.7465,,180.7467,183.9145,0.480139669,2.9237,8.0,0.0,8.0,0.0,1.0,,,,,,,,,,,,,0.921615568994328,5.298179186833758e-28,1.5996481149338804,1.013428452333333
33,,,A1P6OXEJ86HQRM,1,2023-11-28_12h44.30.833,color_task,2023.2.2,Win32,58.29544129999999,,,,,,,,,,,,,,,,,,,,,,,,,,,,,,,,,,,,,,,,,,,,,,,,,,,,,,,,,,,,,,,183.915,184.4146,,,y,2.0,2.0,0.0,continious,"[""y"",2]",No,,,,,,,,,,,,,,,,,,,,184.4146,186.4153,,186.4156,189.2166,1.46605843,2.5545,9.0,0.0,9.0,0.0,1.0,,,,,,,,,,,,,0.921615568994328,5.298179186833758e-28,1.5996481149338804,1.013428452333333
34,,,A1P6OXEJ86HQRM,1,2023-11-28_12h44.30.833,color_task,2023.2.2,Win32,58.29544129999999,,,,,,,,,,,,,,,,,,,,,,,,,,,,,,,,,,,,,,,,,,,,,,,,,,,,,,,,,,,,,,,189.2171,189.7165,,,y,3.5,3.5,0.0,continious,"[""y"",3.5]",No,,,,,,,,,,,,,,,,,,,,189.7165,193.2185,,193.2187,195.5023,2.998166315,2.0328,10.0,0.0,10.0,0.0,1.0,,,,,,,,,,,,,0.921615568994328,5.298179186833758e-28,1.5996481149338804,1.013428452333333
35,,,A1P6OXEJ86HQRM,1,2023-11-28_12h44.30.833,color_task,2023.2.2,Win32,58.29544129999999,,,,,,,,,,,,,,,,,,,,,,,,,,,,,,,,,,,,,,,,,,,,,,,,,,,,,,,,,,,,,,,195.503,196.0028,,,g,0.5,0.5,0.0,continious,"[""g"",0.5]",No,,,,,,,,,,,,,,,,,,,,196.0028,196.5026,,196.5027,199.9205,0.364421654,3.173,11.0,0.0,11.0,0.0,1.0,,,,,,,,,,,,,0.921615568994328,5.298179186833758e-28,1.5996481149338804,1.013428452333333
36,,,A1P6OXEJ86HQRM,1,2023-11-28_12h44.30.833,color_task,2023.2.2,Win32,58.29544129999999,,,,,,,,,,,,,,,,,,,,,,,,,,,,,,,,,,,,,,,,,,,,,,,,,,,,,,,,,,,,,,,199.9209,200.4203,,,b,4.0,4.0,0.0,continious,"[""b"",4]",No,,,,,,,,,,,,,,,,,,,,200.4204,204.4222,,204.4226,208.207,2.738958036,3.5406,12.0,0.0,12.0,0.0,1.0,,,,,,,,,,,,,0.921615568994328,5.298179186833758e-28,1.5996481149338804,1.013428452333333
37,,,A1P6OXEJ86HQRM,1,2023-11-28_12h44.30.833,color_task,2023.2.2,Win32,58.29544129999999,,,,,,,,,,,,,,,,,,,,,,,,,,,,,,,,,,,,,,,,,,,,,,,,,,,,,,,,,,,,,,,208.2073,208.7073,,,b-y,3.5,1.75,1.75,boundary,"[""b-y"",3.5]",No,,,,,,,,,,,,,,,,,,,,208.7073,212.2089,,212.2094,214.6594,2.502892819,2.1985,13.0,0.0,13.0,0.0,1.0,,,,,,,,,,,,,0.921615568994328,5.298179186833758e-28,1.5996481149338804,1.013428452333333
38,,,A1P6OXEJ86HQRM,1,2023-11-28_12h44.30.833,color_task,2023.2.2,Win32,58.29544129999999,,,,,,,,,,,,,,,,,,,,,,,,,,,,,,,,,,,,,,,,,,,,,,,,,,,,,,,,,,,,,,,214.6599,215.1593,,,g-y,5.0,2.5,2.5,boundary,"[""g-y"",5]",No,,,,,,,,,,,,,,,,,,,,215.1594,220.1614,,220.1617,222.1791,3.604529755,1.776,14.0,0.0,14.0,0.0,1.0,,,,,,,,,,,,,0.921615568994328,5.298179186833758e-28,1.5996481149338804,1.013428452333333
39,,,A1P6OXEJ86HQRM,1,2023-11-28_12h44.30.833,color_task,2023.2.2,Win32,58.29544129999999,,,,,,,,,,,,,,,,,,,,,,,,,,,,,,,,,,,,,,,,,,,,,,,,,,,,,,,,,,,,,,,222.1796,222.679,,,b,3.0,3.0,0.0,continious,"[""b"",3]",No,,,,,,,,,,,,,,,,,,,,222.6791,225.6811,,225.6813,228.4143,2.771358832,2.4798,15.0,0.0,15.0,0.0,1.0,,,,,,,,,,,,,0.921615568994328,5.298179186833758e-28,1.5996481149338804,1.013428452333333
40,,,A1P6OXEJ86HQRM,1,2023-11-28_12h44.30.833,color_task,2023.2.2,Win32,58.29544129999999,,,,,,,,,,,,,,,,,,,,,,,,,,,,,,,,,,,,,,,,,,,,,,,,,,,,,,,,,,,,,,,228.4147,228.9146,,,b,1.5,1.5,0.0,continious,"[""b"",1.5]",No,,,,,,,,,,,,,,,,,,,,228.9146,230.4154,,230.4155,233.2333,1.077245375,2.5714,16.0,0.0,16.0,0.0,1.0,,,,,,,,,,,,,0.921615568994328,5.298179186833758e-28,1.5996481149338804,1.013428452333333
41,,,A1P6OXEJ86HQRM,1,2023-11-28_12h44.30.833,color_task,2023.2.2,Win32,58.29544129999999,,,,,,,,,,,,,,,,,,,,,,,,,,,,,,,,,,,,,,,,,,,,,,,,,,,,,,,,,,,,,,,233.234,233.733,,,g,3.0,3.0,0.0,continious,"[""g"",3]",No,,,,,,,,,,,,,,,,,,,,233.733,236.7347,,236.7351,239.7855,2.438090908,2.8124,17.0,0.0,17.0,0.0,1.0,,,,,,,,,,,,,0.921615568994328,5.298179186833758e-28,1.5996481149338804,1.013428452333333
42,,,A1P6OXEJ86HQRM,1,2023-11-28_12h44.30.833,color_task,2023.2.2,Win32,58.29544129999999,,,,,,,,,,,,,,,,,,,,,,,,,,,,,,,,,,,,,,,,,,,,,,,,,,,,,,,,,,,,,,,239.7859,240.2858,,,b-y,5.0,2.5,2.5,boundary,"[""b-y"",5]",No,,,,,,,,,,,,,,,,,,,,240.2858,245.2878,,245.2882,248.276,3.896139467,2.7355,18.0,0.0,18.0,0.0,1.0,,,,,,,,,,,,,0.921615568994328,5.298179186833758e-28,1.5996481149338804,1.013428452333333
43,,,A1P6OXEJ86HQRM,1,2023-11-28_12h44.30.833,color_task,2023.2.2,Win32,58.29544129999999,,,,,,,,,,,,,,,,,,,,,,,,,,,,,,,,,,,,,,,,,,,,,,,,,,,,,,,,,,,,,,,248.2766,248.776,,,b-g,4.5,2.25,2.25,boundary,"[""b-g"",4.5]",No,,,,,,,,,,,,,,,,,,,,248.7761,253.2742,,253.2744,258.0256,2.002990456,4.5078,19.0,0.0,19.0,0.0,1.0,,,,,,,,,,,,,0.921615568994328,5.298179186833758e-28,1.5996481149338804,1.013428452333333
44,,,A1P6OXEJ86HQRM,1,2023-11-28_12h44.30.833,color_task,2023.2.2,Win32,58.29544129999999,,,,,,,,,,,,,,,,,,,,,,,,,,,,,,,,,,,,,,,,,,,,,,,,,,,,,,,,,,,,,,,258.0261,258.5263,,,g,4.5,4.5,0.0,continious,"[""g"",4.5]",No,,,,,,,,,,,,,,,,,,,,258.5263,263.0277,,263.0279,265.7951,3.312919725,2.5143,20.0,0.0,20.0,0.0,1.0,,,,,,,,,,,,,0.921615568994328,5.298179186833758e-28,1.5996481149338804,1.013428452333333
45,,,A1P6OXEJ86HQRM,1,2023-11-28_12h44.30.833,color_task,2023.2.2,Win32,58.29544129999999,,,,,,,,,,,,,,,,,,,,,,,,,,,,,,,,,,,,,,,,,,,,,,,,,,,,,,,,,,,,,,,265.7956,266.2955,,,b,5.0,5.0,0.0,continious,"[""b"",5]",No,,,,,,,,,,,,,,,,,,,,266.2956,271.2976,,271.2978,276.1325,2.988908899,4.5809,21.0,0.0,21.0,0.0,1.0,,,,,,,,,,,,,0.921615568994328,5.298179186833758e-28,1.5996481149338804,1.013428452333333
46,,,A1P6OXEJ86HQRM,1,2023-11-28_12h44.30.833,color_task,2023.2.2,Win32,58.29544129999999,,,,,,,,,,,,,,,,,,,,,,,,,,,,,,,,,,,,,,,,,,,,,,,,,,,,,,,,,,,,,,,276.1333,276.6329,,,g-y,3.5,1.75,1.75,boundary,"[""g-y"",3.5]",No,,,,,,,,,,,,,,,,,,,,276.6329,280.1343,,280.1345,282.6516,1.4845732619999998,2.2779,22.0,0.0,22.0,0.0,1.0,,,,,,,,,,,,,0.921615568994328,5.298179186833758e-28,1.5996481149338804,1.013428452333333
47,,,A1P6OXEJ86HQRM,1,2023-11-28_12h44.30.833,color_task,2023.2.2,Win32,58.29544129999999,,,,,,,,,,,,,,,,,,,,,,,,,,,,,,,,,,,,,,,,,,,,,,,,,,,,,,,,,,,,,,,282.6519,283.1519,,,gc,1.0,1.0,0.0,catch,"[""gc"",1]",Yes,,,,,,,,,,,,,,,,,,,,283.152,284.1523,,284.1525,287.4868,0.475510962,3.0809,23.0,0.0,23.0,0.0,1.0,,,,,,,,,,,,,0.921615568994328,5.298179186833758e-28,1.5996481149338804,1.013428452333333
48,,,A1P6OXEJ86HQRM,1,2023-11-28_12h44.30.833,color_task,2023.2.2,Win32,58.29544129999999,,,,,,,,,,,,,,,,,,,,,,,,,,,,,,,,,,,,,,,,,,,,,,,,,,,,,,,,,,,,,,,287.4873,287.9869,,,b-g,3.0,1.5,1.5,boundary,"[""b-g"",3]",No,,,,,,,,,,,,,,,,,,,,287.987,290.9885,,290.9887,292.9722,1.498459227,1.7419,24.0,0.0,24.0,0.0,1.0,,,,,,,,,,,,,0.921615568994328,5.298179186833758e-28,1.5996481149338804,1.013428452333333
49,,,A1P6OXEJ86HQRM,1,2023-11-28_12h44.30.833,color_task,2023.2.2,Win32,58.29544129999999,,,,,,,,,,,,,,,,,,,,,,,,,,,,,,,,,,,,,,,,,,,,,,,,,,,,,,,,,,,,,,,292.9726,293.4727,,,g,1.5,1.5,0.0,continious,"[""g"",1.5]",No,,,,,,,,,,,,,,,,,,,,293.4727,294.9734,,294.9737,296.9571,1.225364665,1.7331,25.0,0.0,25.0,0.0,1.0,,,,,,,,,,,,,0.921615568994328,5.298179186833758e-28,1.5996481149338804,1.013428452333333
50,,,A1P6OXEJ86HQRM,1,2023-11-28_12h44.30.833,color_task,2023.2.2,Win32,58.29544129999999,,,,,,,,,,,,,,,,,,,,,,,,,,,,,,,,,,,,,,,,,,,,,,,,,,,,,,,,,,,,,,,296.9576,297.4574,,,y,4.0,4.0,0.0,continious,"[""y"",4]",No,,,,,,,,,,,,,,,,,,,,297.4575,301.4592,,301.4594,303.8765,2.998166315,2.1790000000000003,26.0,0.0,26.0,0.0,1.0,,,,,,,,,,,,,0.921615568994328,5.298179186833758e-28,1.5996481149338804,1.013428452333333
51,,,A1P6OXEJ86HQRM,1,2023-11-28_12h44.30.833,color_task,2023.2.2,Win32,58.29544129999999,,,,,,,,,,,,,,,,,,,,,,,,,,,,,,,,,,,,,,,,,,,,,,,,,,,,,,,,,,,,,,,303.8769,304.3767,,,g-y,4.0,2.0,2.0,boundary,"[""g-y"",4]",No,,,,,,,,,,,,,,,,,,,,304.3769,308.365,,308.3653,310.1456,2.211283108,1.5418,27.0,0.0,27.0,0.0,1.0,,,,,,,,,,,,,0.921615568994328,5.298179186833758e-28,1.5996481149338804,1.013428452333333
52,,,A1P6OXEJ86HQRM,1,2023-11-28_12h44.30.833,color_task,2023.2.2,Win32,58.29544129999999,,,,,,,,,,,,,,,,,,,,,,,,,,,,,,,,,,,,,,,,,,,,,,,,,,,,,,,,,,,,,,,310.146,310.6456,,,g,1.0,1.0,0.0,continious,"[""g"",1]",No,,,,,,,,,,,,,,,,,,,,310.6456,311.6462,,311.6466,314.0302,0.54031319,2.1372,28.0,0.0,28.0,0.0,1.0,,,,,,,,,,,,,0.921615568994328,5.298179186833758e-28,1.5996481149338804,1.013428452333333
53,,,A1P6OXEJ86HQRM,1,2023-11-28_12h44.30.833,color_task,2023.2.2,Win32,58.29544129999999,,,,,,,,,,,,,,,,,,,,,,,,,,,,,,,,,,,,,,,,,,,,,,,,,,,,,,,,,,,,,,,314.0307,314.5303,,,g-y,2.5,1.25,1.25,boundary,"[""g-y"",2.5]",No,,,,,,,,,,,,,,,,,,,,314.5303,317.0316,,317.0322,319.3992,1.452172148,2.1216,29.0,0.0,29.0,0.0,1.0,,,,,,,,,,,,,0.921615568994328,5.298179186833758e-28,1.5996481149338804,1.013428452333333
54,,,A1P6OXEJ86HQRM,1,2023-11-28_12h44.30.833,color_task,2023.2.2,Win32,58.29544129999999,,,,,,,,,,,,,,,,,,,,,,,,,,,,,,,,,,,,,,,,,,,,,,,,,,,,,,,,,,,,,,,319.3995,319.8992,,,b,3.5,3.5,0.0,continious,"[""b"",3.5]",No,,,,,,,,,,,,,,,,,,,,319.8993,323.4008,,323.4011,326.4517,2.637125826,2.8115,30.0,0.0,30.0,0.0,1.0,,,,,,,,,,,,,0.921615568994328,5.298179186833758e-28,1.5996481149338804,1.013428452333333
55,,,A1P6OXEJ86HQRM,1,2023-11-28_12h44.30.833,color_task,2023.2.2,Win32,58.29544129999999,,,,,,,,,,,,,,,,,,,,,,,,,,,,,,,,,,,,,,,,,,,,,,,,,,,,,,,,,,,,,,,326.4522,326.9519,,,b,0.5,0.5,0.0,continious,"[""b"",0.5]",No,,,,,,,,,,,,,,,,,,,,326.9519,327.4523,,327.4528,330.2364,0.7995219459999999,2.5381,31.0,0.0,31.0,0.0,1.0,,,,,,,,,,,,,0.921615568994328,5.298179186833758e-28,1.5996481149338804,1.013428452333333
56,,,A1P6OXEJ86HQRM,1,2023-11-28_12h44.30.833,color_task,2023.2.2,Win32,58.29544129999999,,,,,,,,,,,,,,,,,,,,,,,,,,,,,,,,,,,,,,,,,,,,,,,,,,,,,,,,,,,,,,,330.2367,330.7366,,,b-y,2.0,1.0,1.0,boundary,"[""b-y"",2]",No,,,,,,,,,,,,,,,,,,,,330.7366,332.7374,,332.7376,334.9718,0.998556864,1.994,32.0,0.0,32.0,0.0,1.0,,,,,,,,,,,,,0.921615568994328,5.298179186833758e-28,1.5996481149338804,1.013428452333333
57,,,A1P6OXEJ86HQRM,1,2023-11-28_12h44.30.833,color_task,2023.2.2,Win32,58.29544129999999,,,,,,,,,,,,,,,,,,,,,,,,,,,,,,,,,,,,,,,,,,,,,,,,,,,,,,,,,,,,,,,334.9723,335.4717,,,g,3.5,3.5,0.0,continious,"[""g"",3.5]",No,,,,,,,,,,,,,,,,,,,,335.4717,338.9732,,338.9735,343.6087,1.692865913,4.3922,33.0,0.0,33.0,0.0,1.0,,,,,,,,,,,,,0.921615568994328,5.298179186833758e-28,1.5996481149338804,1.013428452333333
58,,,A1P6OXEJ86HQRM,1,2023-11-28_12h44.30.833,color_task,2023.2.2,Win32,58.29544129999999,,,,,,,,,,,,,,,,,,,,,,,,,,,,,,,,,,,,,,,,,,,,,,,,,,,,,,,,,,,,,,,343.6091,344.1086,,,b-g,4.0,2.0,2.0,boundary,"[""b-g"",4]",No,,,,,,,,,,,,,,,,,,,,344.1086,348.1106,,348.111,351.6444,1.447543281,3.2949,34.0,0.0,34.0,0.0,1.0,,,,,,,,,,,,,0.921615568994328,5.298179186833758e-28,1.5996481149338804,1.013428452333333
59,,,A1P6OXEJ86HQRM,1,2023-11-28_12h44.30.833,color_task,2023.2.2,Win32,58.29544129999999,,,,,,,,,,,,,,,,,,,,,,,,,,,,,,,,,,,,,,,,,,,,,,,,,,,,,,,,,,,,,,,351.645,352.1448,,,b-g,5.0,2.5,2.5,boundary,"[""b-g"",5]",No,,,,,,,,,,,,,,,,,,,,352.1448,357.147,,357.1472,358.9644,2.160367479,1.5735,35.0,0.0,35.0,0.0,1.0,,,,,,,,,,,,,0.921615568994328,5.298179186833758e-28,1.5996481149338804,1.013428452333333
60,,,A1P6OXEJ86HQRM,1,2023-11-28_12h44.30.833,color_task,2023.2.2,Win32,58.29544129999999,,,,,,,,,,,,,,,,,,,,,,,,,,,,,,,,,,,,,,,,,,,,,,,,,,,,,,,,,,,,,,,358.9648,359.4641,,,y,5.0,5.0,0.0,continious,"[""y"",5]",No,,,,,,,,,,,,,,,,,,,,359.4641,364.4662,,364.4664,366.3669,2.993537766,1.6574,36.0,0.0,36.0,0.0,1.0,,,,,,,,,,,,,0.921615568994328,5.298179186833758e-28,1.5996481149338804,1.013428452333333
61,,,A1P6OXEJ86HQRM,1,2023-11-28_12h44.30.833,color_task,2023.2.2,Win32,58.29544129999999,,,,,,,,,,,,,,,,,,,,,,,,,,,,,,,,,,,,,,,,,,,,,,,,,,,,,,,,,,,,,,,366.3673,366.8671,,,g-y,2.0,1.0,1.0,boundary,"[""g-y"",2]",No,,,,,,,,,,,,,,,,,,,,366.8671,368.86800000000005,,368.8682,371.8021,1.017072014,2.6817,37.0,0.0,37.0,0.0,1.0,,,,,,,,,,,,,0.921615568994328,5.298179186833758e-28,1.5996481149338804,1.013428452333333
62,,,A1P6OXEJ86HQRM,1,2023-11-28_12h44.30.833,color_task,2023.2.2,Win32,58.29544129999999,,,,,,,,,,,,,,,,,,,,,,,,,,,,,,,,,,,,,,,,,,,,,,,,,,,,,,,,,,,,,,,371.8026,372.3053,,,b-y,1.0,0.5,0.5,boundary,"[""b-y"",1]",No,,,,,,,,,,,,,,,,,,,,372.3054,373.30300000000005,,373.3035,375.2869,0.831922743,1.7362,38.0,0.0,38.0,0.0,1.0,,,,,,,,,,,,,0.921615568994328,5.298179186833758e-28,1.5996481149338804,1.013428452333333
63,,,A1P6OXEJ86HQRM,1,2023-11-28_12h44.30.833,color_task,2023.2.2,Win32,58.29544129999999,,,,,,,,,,,,,,,,,,,,,,,,,,,,,,,,,,,,,,,,,,,,,,,,,,,,,,,,,,,,,,,375.2875,375.787,,,g,2.5,2.5,0.0,continious,"[""g"",2.5]",No,,,,,,,,,,,,,,,,,,,,375.787,378.2912,,378.2915,381.5589,1.105017623,3.0195,39.0,0.0,39.0,0.0,1.0,,,,,,,,,,,,,0.921615568994328,5.298179186833758e-28,1.5996481149338804,1.013428452333333
64,,,A1P6OXEJ86HQRM,1,2023-11-28_12h44.30.833,color_task,2023.2.2,Win32,58.29544129999999,,,,,,,,,,,,,,,,,,,,,,,,,,,,,,,,,,,,,,,,,,,,,,,,,,,,,,,,,,,,,,,381.5594,382.056,,,b-y,4.0,2.0,2.0,boundary,"[""b-y"",4]",No,,,,,,,,,,,,,,,,,,,,382.056,386.0577,,386.05800000000005,388.3254,1.692865913,2.0162,40.0,0.0,40.0,0.0,1.0,,,,,,,,,,,,,0.921615568994328,5.298179186833758e-28,1.5996481149338804,1.013428452333333
65,,,A1P6OXEJ86HQRM,1,2023-11-28_12h44.30.833,color_task,2023.2.2,Win32,58.29544129999999,,,,,,,,,,,,,,,,,,,,,,,,,,,,,,,,,,,,,,,,,,,,,,,,,,,,,,,,,,,,,,,388.3258,388.8255,,,g-y,1.5,0.75,0.75,boundary,"[""g-y"",1.5]",No,,,,,,,,,,,,,,,,,,,,388.8255,390.329,,390.3292,392.7101,0.929126086,2.1338,41.0,0.0,41.0,0.0,1.0,,,,,,,,,,,,,0.921615568994328,5.298179186833758e-28,1.5996481149338804,1.013428452333333
66,,,A1P6OXEJ86HQRM,1,2023-11-28_12h44.30.833,color_task,2023.2.2,Win32,58.29544129999999,,,,,,,,,,,,,,,,,,,,,,,,,,,,,,,,,,,,,,,,,,,,,,,,,,,,,,,,,,,,,,,392.7105,393.2102,,,gc,2.0,2.0,0.0,catch,"[""gc"",2]",Yes,,,,,,,,,,,,,,,,,,,,393.2102,395.2111,space,395.2115,396.9282,1.128161322,1.4635,42.0,0.0,42.0,0.0,1.0,0.6511,,,,,,,,,,,,0.921615568994328,5.298179186833758e-28,1.5996481149338804,1.013428452333333
67,,,A1P6OXEJ86HQRM,1,2023-11-28_12h44.30.833,color_task,2023.2.2,Win32,58.29544129999999,,,,,,,,,,,,,,,,,,,,,,,,,,,,,,,,,,,,,,,,,,,,,,,,,,,,,,,,,,,,,,,396.9286,397.4319,,,b,2.5,2.5,0.0,continious,"[""b"",2.5]",No,,,,,,,,,,,,,,,,,,,,397.432,399.9326,,399.9331,401.4801,2.058535269,1.2995,43.0,0.0,43.0,0.0,1.0,,,,,,,,,,,,,0.921615568994328,5.298179186833758e-28,1.5996481149338804,1.013428452333333
68,,,A1P6OXEJ86HQRM,1,2023-11-28_12h44.30.833,color_task,2023.2.2,Win32,58.29544129999999,,,,,,,,,,,,,,,,,,,,,,,,,,,,,,,,,,,,,,,,,,,,,,,,,,,,,,,,,,,,,,,401.4805,401.9803,,,bc,1.0,1.0,0.0,catch,"[""bc"",1]",Yes,,,,,,,,,,,,,,,,,,,,401.9803,402.9829,,402.9833,404.9649,0.5171694920000001,1.7355,44.0,0.0,44.0,0.0,1.0,,,,,,,,,,,,,0.921615568994328,5.298179186833758e-28,1.5996481149338804,1.013428452333333
69,,,A1P6OXEJ86HQRM,1,2023-11-28_12h44.30.833,color_task,2023.2.2,Win32,58.29544129999999,,,,,,,,,,,,,,,,,,,,,,,,,,,,,,,,,,,,,,,,,,,,,,,,,,,,,,,,,,,,,,,404.9655,405.4654,,,g,2.0,2.0,0.0,continious,"[""g"",2]",No,,,,,,,,,,,,,,,,,,,,405.4654,407.4657,,407.466,409.4335,1.06798796,1.7208,45.0,0.0,45.0,0.0,1.0,,,,,,,,,,,,,0.921615568994328,5.298179186833758e-28,1.5996481149338804,1.013428452333333
70,,,A1P6OXEJ86HQRM,1,2023-11-28_12h44.30.833,color_task,2023.2.2,Win32,58.29544129999999,,,,,,,,,,,,,,,,,,,,,,,,,,,,,,,,,,,,,,,,,,,,,,,,,,,,,,,,,,,,,,,409.434,409.9335,,,b-g,3.5,1.75,1.75,boundary,"[""b-g"",3.5]",No,,,,,,,,,,,,,,,,,,,,409.9336,413.4348,,413.4352,415.1524,1.762296691,1.4746,46.0,0.0,46.0,0.0,1.0,,,,,,,,,,,,,0.921615568994328,5.298179186833758e-28,1.5996481149338804,1.013428452333333
